"session","subject.id","round","message.id","game","gameType","decision","team.id","message.en","message","lower.lvl","upper.lvl","salience.payoff.x","salience.label.x","teamThinking","history","subject.id.cum","input","input.lb","input.lbub"
1,1,1,"1.1.1","ASL","X-Y","Y",1,"I would take x because the others will probably also take x... oops, no, I would take y because the others will probably also take y to... oh, I don't know.","Ich würde x nehmen, da die anderen bestimmt auch x nehmen ups ne ich würde y nehmen da die andern bestimmt auc hy nehmen um uns ... ach keine ahnung",0,1,"no","no","none","no history",1,"Team: 1 
Game: ASL 
Decision: Y 
Message: Ich würde x nehmen, da die anderen bestimmt auch x nehmen ups ne ich würde y nehmen da die andern bestimmt auc hy nehmen um uns ... ach keine ahnung","Team: 1 
Game: S2 
Decision: § 
Message: dieselbe idee wie immer. ich hoffe, dass wir dieselbe ideen hatten :) 
Lower bound: 0","Team: 1 
Game: S2 
Decision: § 
Message: dieselbe idee wie immer. ich hoffe, dass wir dieselbe ideen hatten :) 
Lower bound: 0 
Upper bound: 1"
1,1,2,"1.1.2","AM2","Pie","§",1,"I would take the white square, as it is the only square that is white and also puts us in a better position.","ich würde das weiße Feld nehmen, da es das einzige Feld ist das weiß ist und uns auch besser stellt",0,0,"H","§","none","(1,ASL,Y)",1,"Team: 1 
Game: AM2 
Decision: § 
Message: ich würde das weiße Feld nehmen, da es das einzige Feld ist das weiß ist und uns auch besser stellt","Team: 1 
Game: S2 
Decision: § 
Message: dieselbe idee wie immer. ich hoffe, dass wir dieselbe ideen hatten :) 
Lower bound: 0","Team: 1 
Game: S2 
Decision: § 
Message: dieselbe idee wie immer. ich hoffe, dass wir dieselbe ideen hatten :) 
Lower bound: 0 
Upper bound: 0"
1,1,3,"1.1.3","AML","X-Y","Y",1,"Since we have also improved in round 1, we will do the same here and hope that the others will reciprocate.","Da wir in runde 1 auch uns besser gestellt haben machen wir das hier auch und hoffen das die anderen entgegenkommen",2,2,"H","no","none","(1,ASL,Y), (2,AM2,§)",1,"Team: 1 
Game: AML 
Decision: Y 
Message: Da wir in runde 1 auch uns besser gestellt haben machen wir das hier auch und hoffen das die anderen entgegenkommen","Team: 1 
Game: S2 
Decision: § 
Message: dieselbe idee wie immer. ich hoffe, dass wir dieselbe ideen hatten :) 
Lower bound: 2","Team: 1 
Game: S2 
Decision: § 
Message: dieselbe idee wie immer. ich hoffe, dass wir dieselbe ideen hatten :) 
Lower bound: 0 
Upper bound: 2"
1,1,4,"1.1.4","AM4","Pie","#",1,"This time we won't go with the white one - that would put team 2 at a disadvantage. I would say a decision in which we are better off, but team 2 is better off than with the white decision.","Dieses mal nehmen wir nicht das weiße - da würde team 2 schlechter gestellt sein ich würde sagen entscheidung in der wir besser gestellt sind aber team 2 besser dran ist als mit der weißen entscheidung",0,1,"H","no","pareto dominance arguments","(1,ASL,Y), (2,AM2,§), (3,AML,Y)",1,"Team: 1 
Game: AM4 
Decision: # 
Message: Dieses mal nehmen wir nicht das weiße - da würde team 2 schlechter gestellt sein ich würde sagen entscheidung in der wir besser gestellt sind aber team 2 besser dran ist als mit der weißen entscheidung","Team: 1 
Game: S2 
Decision: § 
Message: dieselbe idee wie immer. ich hoffe, dass wir dieselbe ideen hatten :) 
Lower bound: 0","Team: 1 
Game: S2 
Decision: § 
Message: dieselbe idee wie immer. ich hoffe, dass wir dieselbe ideen hatten :) 
Lower bound: 0 
Upper bound: 1"
1,1,5,"1.1.5","ALL","X-Y","Y",1,"We are feeling better again and hope that team 2 will meet us halfway.","wir stellen uns wieder besser und hoffen das uns team 2 entgegenkommt",2,2,"H","no","none","(1,ASL,Y), (2,AM2,§), (3,AML,Y), (4,AM4,#)",1,"Team: 1 
Game: ALL 
Decision: Y 
Message: wir stellen uns wieder besser und hoffen das uns team 2 entgegenkommt","Team: 1 
Game: S2 
Decision: § 
Message: dieselbe idee wie immer. ich hoffe, dass wir dieselbe ideen hatten :) 
Lower bound: 2","Team: 1 
Game: S2 
Decision: § 
Message: dieselbe idee wie immer. ich hoffe, dass wir dieselbe ideen hatten :) 
Lower bound: 0 
Upper bound: 2"
1,1,6,"1.1.6","S2","Pie","§",1,"Very difficult. I would go for $, as both teams have 6 6. However, it's difficult because there is the same age with #. White field is also possible, as it is the only age that is different and not much worse. Taking the white decision.","sehr schwierig. ich würde $ nehmen, da beide teams 6 6 haben allerdings is halt schwierig da es die gleiche alt. noch gibt mit # weißes feld auch möglich da es die einzige alt gibt die sich unterscheidet und nicht soviel schlechter is ne nehmen wird die weiße entscheidung",0,1,"no","§","labels as coordination device","(1,ASL,Y), (2,AM2,§), (3,AML,Y), (4,AM4,#), (5,ALL,Y)",1,"Team: 1 
Game: S2 
Decision: § 
Message: sehr schwierig. ich würde $ nehmen, da beide teams 6 6 haben allerdings is halt schwierig da es die gleiche alt. noch gibt mit # weißes feld auch möglich da es die einzige alt gibt die sich unterscheidet und nicht soviel schlechter is ne nehmen wird die weiße entscheidung","Team: 1 
Game: S2 
Decision: § 
Message: dieselbe idee wie immer. ich hoffe, dass wir dieselbe ideen hatten :) 
Lower bound: 0","Team: 1 
Game: S2 
Decision: § 
Message: dieselbe idee wie immer. ich hoffe, dass wir dieselbe ideen hatten :) 
Lower bound: 0 
Upper bound: 1"
1,1,7,"1.1.7","SL","X-Y","X",1,"Let's take x since the alternative is stated above, so I hope team 2 also chooses x.","nehmen wir x da die alternative oben steht daher hoffe ich das team 2 auch x wählt",1,1,"no","X","labels as coordination device","(1,ASL,Y), (2,AM2,§), (3,AML,Y), (4,AM4,#), (5,ALL,Y), (6,S2,§)",1,"Team: 1 
Game: SL 
Decision: X 
Message: nehmen wir x da die alternative oben steht daher hoffe ich das team 2 auch x wählt","Team: 1 
Game: S2 
Decision: § 
Message: dieselbe idee wie immer. ich hoffe, dass wir dieselbe ideen hatten :) 
Lower bound: 1","Team: 1 
Game: S2 
Decision: § 
Message: dieselbe idee wie immer. ich hoffe, dass wir dieselbe ideen hatten :) 
Lower bound: 0 
Upper bound: 1"
1,1,8,"1.1.8","S1","Pie","§",1,"Clearly white field, as it stands out from the others and all decisions give an equal number of coins to both teams.","ganz klar weißes feld, da es sich von den anderen abhebt und alles entscheidungen gleich viele taler geben für beide teams",0,1,"no","§","labels as coordination device","(1,ASL,Y), (2,AM2,§), (3,AML,Y), (4,AM4,#), (5,ALL,Y), (6,S2,§), (7,SL,X)",1,"Team: 1 
Game: S1 
Decision: § 
Message: ganz klar weißes feld, da es sich von den anderen abhebt und alles entscheidungen gleich viele taler geben für beide teams","Team: 1 
Game: S2 
Decision: § 
Message: dieselbe idee wie immer. ich hoffe, dass wir dieselbe ideen hatten :) 
Lower bound: 0","Team: 1 
Game: S2 
Decision: § 
Message: dieselbe idee wie immer. ich hoffe, dass wir dieselbe ideen hatten :) 
Lower bound: 0 
Upper bound: 1"
1,10,1,"1.10.1","ASL","X-Y","Y",1,"I think they will propose a larger payout to us because they think we will keep it for ourselves to ensure coordination... however, I can imagine that they have the exact same mindset as I do and will do the opposite... I'll call it Y","Ich denke sie werden uns die größere Auszahlung vorschlagen, da sie denken, dass wir sie für uns behalten werden .das machen die um koordination sicherzustellen... allerdings kann ich mir denken, dass sie genau die gleiche Denkweise wie ich haben und das Umgekehrte machen werden... . Ich sag mal Y",3,3,"H","no","none","no history",10,"Team: 1 
Game: ASL 
Decision: Y 
Message: Ich denke sie werden uns die größere Auszahlung vorschlagen, da sie denken, dass wir sie für uns behalten werden .das machen die um koordination sicherzustellen... allerdings kann ich mir denken, dass sie genau die gleiche Denkweise wie ich haben und das Umgekehrte machen werden... . Ich sag mal Y","Team: 1 
Game: S2 
Decision: § 
Message: dieselbe idee wie immer. ich hoffe, dass wir dieselbe ideen hatten :) 
Lower bound: 3","Team: 1 
Game: S2 
Decision: § 
Message: dieselbe idee wie immer. ich hoffe, dass wir dieselbe ideen hatten :) 
Lower bound: 0 
Upper bound: 3"
1,10,2,"1.10.2","AM2","Pie","$",1,"I think they will act rationally and choose the left option, as the distribution between both teams plays a lesser role here. There is the additional complication for the other team if they want to be generous, that we randomly select the other option from the two with equal payouts. I don't think they will play with the colors.","Ich denke sie werden rational handeln und sich für links entscheiden, da hierdie Verteilung zwischen beiden Teams hier eine geringere Rolle spielt. es gibt ja die zusätzliche Verkomplizierung für das andere Team, wenn sie großzügig sein wollen, dass wir per zufall die andere option aus den 2 mit gleichen auszahlungen auswählen mit den farben werden sie denke ich nicht spiele",1,2,"H","no","payoffs as coordination device","(1,ASL,Y)",10,"Team: 1 
Game: AM2 
Decision: $ 
Message: Ich denke sie werden rational handeln und sich für links entscheiden, da hierdie Verteilung zwischen beiden Teams hier eine geringere Rolle spielt. es gibt ja die zusätzliche Verkomplizierung für das andere Team, wenn sie großzügig sein wollen, dass wir per zufall die andere option aus den 2 mit gleichen auszahlungen auswählen mit den farben werden sie denke ich nicht spiele","Team: 1 
Game: S2 
Decision: § 
Message: dieselbe idee wie immer. ich hoffe, dass wir dieselbe ideen hatten :) 
Lower bound: 1","Team: 1 
Game: S2 
Decision: § 
Message: dieselbe idee wie immer. ich hoffe, dass wir dieselbe ideen hatten :) 
Lower bound: 0 
Upper bound: 2"
1,10,3,"1.10.3","AML","X-Y","Y",1,"Same argument as in the first task... maybe they think that by being generous, they will ensure our cooperation. Additionally, we should try to have a certain consistency in our decisions, so that we don't always decide differently than they do. So, I assume that there will be no consistency between the individual tasks in the other teams, but rather they will try to create similarities through variation... and so it will be more difficult to reach a common decision.","gleiches Argument wie bei der ersten aufgabe.. vllt denken sie, das sie durch großzügigkeit unsere kooperatino sicherstellen werden. außerdem sollen wir versuchen gewisse konsistenz in inseren entscheidungen zu haben, damit wir nicht immer anders entscheiden als sie. ich gehe also davon aus, dass es bei den anderen teams keine konsistenz zwischen den einzelnen aufgaben geben wird. sondern werden sie eher versuchen durch abwechslung übereinstimmungen zu schaffen... und so wird es schwierigereine gemeinsame entscheidung zu treffen",2,2,"H","no","none","(1,ASL,Y), (2,AM2,$)",10,"Team: 1 
Game: AML 
Decision: Y 
Message: gleiches Argument wie bei der ersten aufgabe.. vllt denken sie, das sie durch großzügigkeit unsere kooperatino sicherstellen werden. außerdem sollen wir versuchen gewisse konsistenz in inseren entscheidungen zu haben, damit wir nicht immer anders entscheiden als sie. ich gehe also davon aus, dass es bei den anderen teams keine konsistenz zwischen den einzelnen aufgaben geben wird. sondern werden sie eher versuchen durch abwechslung übereinstimmungen zu schaffen... und so wird es schwierigereine gemeinsame entscheidung zu treffen","Team: 1 
Game: S2 
Decision: § 
Message: dieselbe idee wie immer. ich hoffe, dass wir dieselbe ideen hatten :) 
Lower bound: 2","Team: 1 
Game: S2 
Decision: § 
Message: dieselbe idee wie immer. ich hoffe, dass wir dieselbe ideen hatten :) 
Lower bound: 0 
Upper bound: 2"
1,10,4,"1.10.4","AM4","Pie","§",1,"It's complicated here... the obvious option should be the one in white... however, the distribution there is not equal... but I don't have a better suggestion than to choose that one, I will follow a reasoned suggestion from you.","hier ist es kompliziert... die offensichtliche variante sollte die im weiß sein... allerdings ist die Verteilung dort nicht gleich... ich habe aber keinen besseren Vorschlag als die auszuwählen werde mich nach einem begründeten Vorschlag deinerseits richten",0,1,"no","§","none","(1,ASL,Y), (2,AM2,$), (3,AML,Y)",10,"Team: 1 
Game: AM4 
Decision: § 
Message: hier ist es kompliziert... die offensichtliche variante sollte die im weiß sein... allerdings ist die Verteilung dort nicht gleich... ich habe aber keinen besseren Vorschlag als die auszuwählen werde mich nach einem begründeten Vorschlag deinerseits richten","Team: 1 
Game: S2 
Decision: § 
Message: dieselbe idee wie immer. ich hoffe, dass wir dieselbe ideen hatten :) 
Lower bound: 0","Team: 1 
Game: S2 
Decision: § 
Message: dieselbe idee wie immer. ich hoffe, dass wir dieselbe ideen hatten :) 
Lower bound: 0 
Upper bound: 1"
1,10,5,"1.10.5","ALL","X-Y","Y",1,"I don't know if the greed for money will speak for the other team now or the mentioned effort to create coordination through compromises... I suggest that we continue to maintain our consistency regarding the responses and vote for Y, although I increasingly perceive the distribution of payments as unfair.","weiß nicht ob jetzt das geldgier hier für das andere team sprechen wird oder das genannte bestreben Koordination durch kompromisse zu schaffen... ich schlage vor, dass wir weiter unsere Konsistenz bezüglich der Antworten behalten und Y tippen, obwohl ich die Verteilung der auszahlungen als zunehmend ungerecht empfinde",2,2,"H","no","none","(1,ASL,Y), (2,AM2,$), (3,AML,Y), (4,AM4,§)",10,"Team: 1 
Game: ALL 
Decision: Y 
Message: weiß nicht ob jetzt das geldgier hier für das andere team sprechen wird oder das genannte bestreben Koordination durch kompromisse zu schaffen... ich schlage vor, dass wir weiter unsere Konsistenz bezüglich der Antworten behalten und Y tippen, obwohl ich die Verteilung der auszahlungen als zunehmend ungerecht empfinde","Team: 1 
Game: S2 
Decision: § 
Message: dieselbe idee wie immer. ich hoffe, dass wir dieselbe ideen hatten :) 
Lower bound: 2","Team: 1 
Game: S2 
Decision: § 
Message: dieselbe idee wie immer. ich hoffe, dass wir dieselbe ideen hatten :) 
Lower bound: 0 
Upper bound: 2"
1,10,6,"1.10.6","S2","Pie","§",1,"Hahaha, that's mean. If both teams choose the rational and obvious, then we each get 5. Anything else would be a chance. I always look for where it seems easiest to create coordination.","hahaha das ist gemein. wenn beide teams das rationale und offensichtliche auswählen, dann kriegen wir jeweils 5. alles andere wäre chance ich gucke ja immer wo es am leichtesten scheint koordination zu schaffen",1,1,"no","§","labels as coordination device","(1,ASL,Y), (2,AM2,$), (3,AML,Y), (4,AM4,§), (5,ALL,Y)",10,"Team: 1 
Game: S2 
Decision: § 
Message: hahaha das ist gemein. wenn beide teams das rationale und offensichtliche auswählen, dann kriegen wir jeweils 5. alles andere wäre chance ich gucke ja immer wo es am leichtesten scheint koordination zu schaffen","Team: 1 
Game: S2 
Decision: § 
Message: dieselbe idee wie immer. ich hoffe, dass wir dieselbe ideen hatten :) 
Lower bound: 1","Team: 1 
Game: S2 
Decision: § 
Message: dieselbe idee wie immer. ich hoffe, dass wir dieselbe ideen hatten :) 
Lower bound: 0 
Upper bound: 1"
1,11,1,"1.11.1","ASL","X-Y","Y",2,"Difficult.. they probably think we should choose alternative x because it would be better for us, so we should actually choose x...BUT if they think they should choose alternative y because it's better for them and we should also choose y...we should rather choose y, 50:50 chance, I'm more inclined towards y.","schwierig.. die denken wahrscheinlich wir nehmen alternative x weil die für uns besser wäre also sollten wir eigentlich x nehmen ...ABER wenn die denken dass sie alternative y nehmen weil das für die besser ist und wir deshalb auch y nehmen ....sollten wir lieber y nehmen 50:50 chance bin eher für y",3,3,"H","no","none","no history",11,"Team: 2 
Game: ASL 
Decision: Y 
Message: schwierig.. die denken wahrscheinlich wir nehmen alternative x weil die für uns besser wäre also sollten wir eigentlich x nehmen ...ABER wenn die denken dass sie alternative y nehmen weil das für die besser ist und wir deshalb auch y nehmen ....sollten wir lieber y nehmen 50:50 chance bin eher für y","Team: 1 
Game: S2 
Decision: § 
Message: dieselbe idee wie immer. ich hoffe, dass wir dieselbe ideen hatten :) 
Lower bound: 3","Team: 1 
Game: S2 
Decision: § 
Message: dieselbe idee wie immer. ich hoffe, dass wir dieselbe ideen hatten :) 
Lower bound: 0 
Upper bound: 3"
1,11,2,"1.11.2","AM2","Pie","$",2,"Difficult again... with the same reasoning as before: they could think we take that for us better and also take that, or that we take the better one for us... it's stupid that there are § and #... so, twice better for the would say the easiest and most sensible thing is to take $. Even if that is better for the other team, they will see that they don't know which one we take for § or #, or which one they should take.","wieder schwierig mit der gleichen begründung wie eben : sie könnten denken wir nehmen dass für uns besser & das auch nehmen oder halt dass wir das für die bessere nehmen .... doof ist dass es §und # gibt ...also zwei mal besser für die . würde sagen am einfachsten und sinnvollsten ist es $ zu nehmen , auch wenn das für das anderen team besser ist werden die einsehen dass sie bei §oder # nicht wissen welche wir nehmen bzw welches sie nehmen sollen",3,3,"H","$","payoffs as coordination device","(1,ASL,Y)",11,"Team: 2 
Game: AM2 
Decision: $ 
Message: wieder schwierig mit der gleichen begründung wie eben : sie könnten denken wir nehmen dass für uns besser & das auch nehmen oder halt dass wir das für die bessere nehmen .... doof ist dass es §und # gibt ...also zwei mal besser für die . würde sagen am einfachsten und sinnvollsten ist es $ zu nehmen , auch wenn das für das anderen team besser ist werden die einsehen dass sie bei §oder # nicht wissen welche wir nehmen bzw welches sie nehmen sollen","Team: 1 
Game: S2 
Decision: § 
Message: dieselbe idee wie immer. ich hoffe, dass wir dieselbe ideen hatten :) 
Lower bound: 3","Team: 1 
Game: S2 
Decision: § 
Message: dieselbe idee wie immer. ich hoffe, dass wir dieselbe ideen hatten :) 
Lower bound: 0 
Upper bound: 3"
1,11,3,"1.11.3","AML","X-Y","Y",2,"After they probably chose the better option for us in the last round, this time they will choose the better option for them more fairly, so y.","nachdem sie in der letzten runde wahrscheinlich die für uns bessere variante gewählt haben , werden sie diesmal fairerweise die für sie bessere variante wählen . also y",3,3,"H","no","none","(1,ASL,Y), (2,AM2,$)",11,"Team: 2 
Game: AML 
Decision: Y 
Message: nachdem sie in der letzten runde wahrscheinlich die für uns bessere variante gewählt haben , werden sie diesmal fairerweise die für sie bessere variante wählen . also y","Team: 1 
Game: S2 
Decision: § 
Message: dieselbe idee wie immer. ich hoffe, dass wir dieselbe ideen hatten :) 
Lower bound: 3","Team: 1 
Game: S2 
Decision: § 
Message: dieselbe idee wie immer. ich hoffe, dass wir dieselbe ideen hatten :) 
Lower bound: 0 
Upper bound: 3"
1,11,4,"1.11.4","AM4","Pie","$",2,"I think they will take $. It's not the best for us, but it's the safest.","denke sie nehmen $ , das ist zwar nicht am besten für uns aber am sichersten",1,1,"H","no","none","(1,ASL,Y), (2,AM2,$), (3,AML,Y)",11,"Team: 2 
Game: AM4 
Decision: $ 
Message: denke sie nehmen $ , das ist zwar nicht am besten für uns aber am sichersten","Team: 1 
Game: S2 
Decision: § 
Message: dieselbe idee wie immer. ich hoffe, dass wir dieselbe ideen hatten :) 
Lower bound: 1","Team: 1 
Game: S2 
Decision: § 
Message: dieselbe idee wie immer. ich hoffe, dass wir dieselbe ideen hatten :) 
Lower bound: 0 
Upper bound: 1"
1,11,5,"1.11.5","ALL","X-Y","Y",2,"Ok, I am confused, I forgot whether the last decision was better for them or for us :S if you still remember ... if it was better for us then alternative y, if it was better for them then alternative x .... but I think it was better for us, so alternative x, for the sake of fairness sorry y alternative y, because I believe the last decision was better for us","deshalb alternative x , der fairnesshalber sorry y alternative y , weil die letzte entscheidung glaube ich besser für uns war",0,1,"no","no","other","(1,ASL,Y), (2,AM2,$), (3,AML,Y), (4,AM4,$)",11,"Team: 2 
Game: ALL 
Decision: Y 
Message: deshalb alternative x , der fairnesshalber sorry y alternative y , weil die letzte entscheidung glaube ich besser für uns war","Team: 1 
Game: S2 
Decision: § 
Message: dieselbe idee wie immer. ich hoffe, dass wir dieselbe ideen hatten :) 
Lower bound: 0","Team: 1 
Game: S2 
Decision: § 
Message: dieselbe idee wie immer. ich hoffe, dass wir dieselbe ideen hatten :) 
Lower bound: 0 
Upper bound: 1"
1,11,6,"1.11.6","S2","Pie","§",2,"You can indeed get 6 talers, but it's not certain who takes what, and before we end up with nothing, it's safest to take §.","man kann zwar 6 taler kriegen aber es ist nicht sicher wer was nimmt , und bevor wir am ende nichts haben ist am sichersten §zu nehmen",0,1,"no","§","none","(1,ASL,Y), (2,AM2,$), (3,AML,Y), (4,AM4,$), (5,ALL,Y)",11,"Team: 2 
Game: S2 
Decision: § 
Message: man kann zwar 6 taler kriegen aber es ist nicht sicher wer was nimmt , und bevor wir am ende nichts haben ist am sichersten §zu nehmen","Team: 1 
Game: S2 
Decision: § 
Message: dieselbe idee wie immer. ich hoffe, dass wir dieselbe ideen hatten :) 
Lower bound: 0","Team: 1 
Game: S2 
Decision: § 
Message: dieselbe idee wie immer. ich hoffe, dass wir dieselbe ideen hatten :) 
Lower bound: 0 
Upper bound: 1"
1,11,7,"1.11.7","SL","X-Y","X",2,"Okay, difficult, there's currently no criterion to determine what the other team could take... I'm in favor of X being in the first place and... well, otherwise I don't really have any reasons :)","ok schwierig , gibt grad irgendwie kein kriterium an dem man festmachen kann was das andere team nehmen könnte ich bin für x steht an erster stelle und...ja sonst hab ich eigentlich keine beweggründe :)",0,1,"no","X","none","(1,ASL,Y), (2,AM2,$), (3,AML,Y), (4,AM4,$), (5,ALL,Y), (6,S2,§)",11,"Team: 2 
Game: SL 
Decision: X 
Message: ok schwierig , gibt grad irgendwie kein kriterium an dem man festmachen kann was das andere team nehmen könnte ich bin für x steht an erster stelle und...ja sonst hab ich eigentlich keine beweggründe :)","Team: 1 
Game: S2 
Decision: § 
Message: dieselbe idee wie immer. ich hoffe, dass wir dieselbe ideen hatten :) 
Lower bound: 0","Team: 1 
Game: S2 
Decision: § 
Message: dieselbe idee wie immer. ich hoffe, dass wir dieselbe ideen hatten :) 
Lower bound: 0 
Upper bound: 1"
1,11,8,"1.11.8","S1","Pie","§",2,"""Because it stands out from the other fields due to its color. $ and # are gray, so I would suggest using § because it's white.""","§weil es sich von den anderen feldern durch die farbe abhebt und # sind ja grau deswegen würd ich vorschlagen §zu nehmen , weils weiß is",0,1,"no","§","labels as coordination device","(1,ASL,Y), (2,AM2,$), (3,AML,Y), (4,AM4,$), (5,ALL,Y), (6,S2,§), (7,SL,X)",11,"Team: 2 
Game: S1 
Decision: § 
Message: §weil es sich von den anderen feldern durch die farbe abhebt und # sind ja grau deswegen würd ich vorschlagen §zu nehmen , weils weiß is","Team: 1 
Game: S2 
Decision: § 
Message: dieselbe idee wie immer. ich hoffe, dass wir dieselbe ideen hatten :) 
Lower bound: 0","Team: 1 
Game: S2 
Decision: § 
Message: dieselbe idee wie immer. ich hoffe, dass wir dieselbe ideen hatten :) 
Lower bound: 0 
Upper bound: 1"
1,12,1,"1.12.1","ASL","X-Y","X",2,"Maybe they will play in a way that they win and not us, so maybe they will give X.","vielleicht werde sie so spielen , dass sie gewinnen und nicht wir , deshalb geben sie vielleicht X ein",1,1,"H","no","none","no history",12,"Team: 2 
Game: ASL 
Decision: X 
Message: vielleicht werde sie so spielen , dass sie gewinnen und nicht wir , deshalb geben sie vielleicht X ein","Team: 1 
Game: S2 
Decision: § 
Message: dieselbe idee wie immer. ich hoffe, dass wir dieselbe ideen hatten :) 
Lower bound: 1","Team: 1 
Game: S2 
Decision: § 
Message: dieselbe idee wie immer. ich hoffe, dass wir dieselbe ideen hatten :) 
Lower bound: 0 
Upper bound: 1"
1,12,2,"1.12.2","AM2","Pie","§",2,"Just because the part of the round has white color and it is more likely that the other team indicates it... moreover, the other team wins more if it decides between the two answers (6, 5)","Nur weil der Teil der Runde weiße Farbe hat unbd es wahrscheinlicher ist, dass das andere Tem es angibt.. außerdem gewinnt das andere Team mehr, wenn es sich zwischen den beiden Antworten (6, 5) entscheidet",1,1,"H","§","labels as coordination device","(1,ASL,X)",12,"Team: 2 
Game: AM2 
Decision: § 
Message: Nur weil der Teil der Runde weiße Farbe hat unbd es wahrscheinlicher ist, dass das andere Tem es angibt.. außerdem gewinnt das andere Team mehr, wenn es sich zwischen den beiden Antworten (6, 5) entscheidet","Team: 1 
Game: S2 
Decision: § 
Message: dieselbe idee wie immer. ich hoffe, dass wir dieselbe ideen hatten :) 
Lower bound: 1","Team: 1 
Game: S2 
Decision: § 
Message: dieselbe idee wie immer. ich hoffe, dass wir dieselbe ideen hatten :) 
Lower bound: 0 
Upper bound: 1"
1,12,3,"1.12.3","AML","X-Y","X",2,"Okay...this time I will try with Y, because it's not certain whether the other team will only think about winning more for themselves than we do. The other team might also think that we are thinking about winning more than they are, and will press Y because it's better for them to win 5 coins than nothing. *Team* not Y but X is what I meant, sorry :)","Okay...dieses Mal werde ich mit Y versuchen, weil es nicht sicher ist ob das andere Team nur daran denken wird mehr für sich zu gewinnen, als wir gewinnen. Das andere Tema kann auch denken , dass wir daran denken mehr als sie zu gewinnnen und wird Y drücken , weil es für sie besser ist 5 Taler zu gewinnen als nichts zu gewinnen. nicht Y sondern X habe ich gemeint , sorry :)",2,2,"H","no","none","(1,ASL,X), (2,AM2,§)",12,"Team: 2 
Game: AML 
Decision: X 
Message: Okay...dieses Mal werde ich mit Y versuchen, weil es nicht sicher ist ob das andere Team nur daran denken wird mehr für sich zu gewinnen, als wir gewinnen. Das andere Tema kann auch denken , dass wir daran denken mehr als sie zu gewinnnen und wird Y drücken , weil es für sie besser ist 5 Taler zu gewinnen als nichts zu gewinnen. nicht Y sondern X habe ich gemeint , sorry :)","Team: 1 
Game: S2 
Decision: § 
Message: dieselbe idee wie immer. ich hoffe, dass wir dieselbe ideen hatten :) 
Lower bound: 2","Team: 1 
Game: S2 
Decision: § 
Message: dieselbe idee wie immer. ich hoffe, dass wir dieselbe ideen hatten :) 
Lower bound: 0 
Upper bound: 2"
1,12,4,"1.12.4","AM4","Pie","#",2,"Perhaps Team 1 will try to get more for themselves, but since their profit also depends on our decision, they know that we will not enter (7,5) because it doesn't benefit us enough... so I am either for (6,7) or for (7,6) but more for (7,6).","Vielleicht wird Team 1 versuchen, mehr für sich zu holen, aber da ihr Gewinn auch von unserer Entschidung abhängig ist, wissen sie dass wir nicht (7,5) eingeben werde weil es uns zu wenig bringt...also ich bin entweder für (6,7) oder für (7,6)",1,2,"H","no","pareto dominance arguments","(1,ASL,X), (2,AM2,§), (3,AML,X)",12,"Team: 2 
Game: AM4 
Decision: # 
Message: Vielleicht wird Team 1 versuchen, mehr für sich zu holen, aber da ihr Gewinn auch von unserer Entschidung abhängig ist, wissen sie dass wir nicht (7,5) eingeben werde weil es uns zu wenig bringt...also ich bin entweder für (6,7) oder für (7,6)","Team: 1 
Game: S2 
Decision: § 
Message: dieselbe idee wie immer. ich hoffe, dass wir dieselbe ideen hatten :) 
Lower bound: 1","Team: 1 
Game: S2 
Decision: § 
Message: dieselbe idee wie immer. ich hoffe, dass wir dieselbe ideen hatten :) 
Lower bound: 0 
Upper bound: 2"
1,12,5,"1.12.5","ALL","X-Y","X",2,"The difference between the two wins is too big, and here the others will almost certainly enter Y in my opinion... and yet I would risk and enter X... we'll see if they don't want to give us the round as a gift ;)","Der Unterschied zwischen den beiden Gewinnen ist zu groß und hier werden die anderen meiner Meinung nach fast sicher Y eingeben...und trotzdem würde ich riskieren und X eingeben... wir wissen ob sie uns nicht die Runde schenken wollen ;)",1,2,"H","no","none","(1,ASL,X), (2,AM2,§), (3,AML,X), (4,AM4,#)",12,"Team: 2 
Game: ALL 
Decision: X 
Message: Der Unterschied zwischen den beiden Gewinnen ist zu groß und hier werden die anderen meiner Meinung nach fast sicher Y eingeben...und trotzdem würde ich riskieren und X eingeben... wir wissen ob sie uns nicht die Runde schenken wollen ;)","Team: 1 
Game: S2 
Decision: § 
Message: dieselbe idee wie immer. ich hoffe, dass wir dieselbe ideen hatten :) 
Lower bound: 1","Team: 1 
Game: S2 
Decision: § 
Message: dieselbe idee wie immer. ich hoffe, dass wir dieselbe ideen hatten :) 
Lower bound: 0 
Upper bound: 2"
1,12,6,"1.12.6","S2","Pie","$",2,"Okay, it is certain that team 1 wants to enter (6, 6)...the question is which of the two...I would enter $...you can enter the other (6, 6) so that we keep the chance 50:50","Okay, hier ist es sicher, dass team 1 (6 , 6) eingeben will...die Frage ist welche von den beiden...ich würde $ eingeben...du kannst das andere (6, 6) angeben , damit wir die Chace 50:50 behalten",1,1,"H","no","none","(1,ASL,X), (2,AM2,§), (3,AML,X), (4,AM4,#), (5,ALL,X)",12,"Team: 2 
Game: S2 
Decision: $ 
Message: Okay, hier ist es sicher, dass team 1 (6 , 6) eingeben will...die Frage ist welche von den beiden...ich würde $ eingeben...du kannst das andere (6, 6) angeben , damit wir die Chace 50:50 behalten","Team: 1 
Game: S2 
Decision: § 
Message: dieselbe idee wie immer. ich hoffe, dass wir dieselbe ideen hatten :) 
Lower bound: 1","Team: 1 
Game: S2 
Decision: § 
Message: dieselbe idee wie immer. ich hoffe, dass wir dieselbe ideen hatten :) 
Lower bound: 0 
Upper bound: 1"
1,12,7,"1.12.7","SL","X-Y","X",2,"Enter X...here it's all a matter of luck...if you find any logic as to why they will enter X or Y, I will listen to you...but if you also find no logic, then we'll press 2 different ones again...I press X","Gebe X ein...hier ist alles eine Frage des Glücks...wenn du irgenwelche Logik findest warum sie genau oder Y eingeben werden, werde ich auf dich zuhören...aber wenn su auch keine Logik findest dann drücken wir wieder 2 verschiedene...ich drücke X",0,0,"no","no","none","(1,ASL,X), (2,AM2,§), (3,AML,X), (4,AM4,#), (5,ALL,X), (6,S2,$)",12,"Team: 2 
Game: SL 
Decision: X 
Message: Gebe X ein...hier ist alles eine Frage des Glücks...wenn du irgenwelche Logik findest warum sie genau oder Y eingeben werden, werde ich auf dich zuhören...aber wenn su auch keine Logik findest dann drücken wir wieder 2 verschiedene...ich drücke X","Team: 1 
Game: S2 
Decision: § 
Message: dieselbe idee wie immer. ich hoffe, dass wir dieselbe ideen hatten :) 
Lower bound: 0","Team: 1 
Game: S2 
Decision: § 
Message: dieselbe idee wie immer. ich hoffe, dass wir dieselbe ideen hatten :) 
Lower bound: 0 
Upper bound: 0"
1,12,8,"1.12.8","S1","Pie","§",2,"I'm back for the white :D it's easier to notice... maybe they also have the same strategy :D you can also press something else, so we can keep the chance 50-50...","Ich bin wieder für das weisse :D man kann es leichter bemerken...vielleicht haben sie auch die gleiche Strategie :D kannst auch was anderes drücken , damit wir die chance 50- 50 behalten",1,1,"no","§","labels as coordination device","(1,ASL,X), (2,AM2,§), (3,AML,X), (4,AM4,#), (5,ALL,X), (6,S2,$), (7,SL,X)",12,"Team: 2 
Game: S1 
Decision: § 
Message: Ich bin wieder für das weisse :D man kann es leichter bemerken...vielleicht haben sie auch die gleiche Strategie :D kannst auch was anderes drücken , damit wir die chance 50- 50 behalten","Team: 1 
Game: S2 
Decision: § 
Message: dieselbe idee wie immer. ich hoffe, dass wir dieselbe ideen hatten :) 
Lower bound: 1","Team: 1 
Game: S2 
Decision: § 
Message: dieselbe idee wie immer. ich hoffe, dass wir dieselbe ideen hatten :) 
Lower bound: 0 
Upper bound: 1"
1,13,1,"1.13.1","ASL","X-Y","Y",1,"Team 2 assumes our egoism and therefore decides on alternative Y.","Team 2 geht von unserem Egoismus aus und entscheidet daher auf Alternative Y.",2,2,"H","no","none","no history",13,"Team: 1 
Game: ASL 
Decision: Y 
Message: Team 2 geht von unserem Egoismus aus und entscheidet daher auf Alternative Y.","Team: 1 
Game: S2 
Decision: § 
Message: dieselbe idee wie immer. ich hoffe, dass wir dieselbe ideen hatten :) 
Lower bound: 2","Team: 1 
Game: S2 
Decision: § 
Message: dieselbe idee wie immer. ich hoffe, dass wir dieselbe ideen hatten :) 
Lower bound: 0 
Upper bound: 2"
1,13,2,"1.13.2","AM2","Pie","$",1,"I would suggest using the dollar sign, as it is the only option that is present only once.","Ich würde vorschlagen, das Dollar-Zeichen zu nehmen, da es die einzige Möglichkeit ist, die nur einmal vorhanden ist.",0,0,"no","$","none","(1,ASL,Y)",13,"Team: 1 
Game: AM2 
Decision: $ 
Message: Ich würde vorschlagen, das Dollar-Zeichen zu nehmen, da es die einzige Möglichkeit ist, die nur einmal vorhanden ist.","Team: 1 
Game: S2 
Decision: § 
Message: dieselbe idee wie immer. ich hoffe, dass wir dieselbe ideen hatten :) 
Lower bound: 0","Team: 1 
Game: S2 
Decision: § 
Message: dieselbe idee wie immer. ich hoffe, dass wir dieselbe ideen hatten :) 
Lower bound: 0 
Upper bound: 0"
1,13,3,"1.13.3","AML","X-Y","Y",1,"50:50 chance. I have no reason. It is foreseeable that the decision regarding round 1 will remain constant. Therefore, we should also maintain our response.","50:50 Chance. Grund habe ich keinen. Es ist absehbar, dass die Entscheidung in Bezug auf Runde 1 konstant bleibt. Deswegen soltlen wir unsere Antwort auch beibehalten.",2,2,"H","no","none","(1,ASL,Y), (2,AM2,$)",13,"Team: 1 
Game: AML 
Decision: Y 
Message: 50:50 Chance. Grund habe ich keinen. Es ist absehbar, dass die Entscheidung in Bezug auf Runde 1 konstant bleibt. Deswegen soltlen wir unsere Antwort auch beibehalten.","Team: 1 
Game: S2 
Decision: § 
Message: dieselbe idee wie immer. ich hoffe, dass wir dieselbe ideen hatten :) 
Lower bound: 2","Team: 1 
Game: S2 
Decision: § 
Message: dieselbe idee wie immer. ich hoffe, dass wir dieselbe ideen hatten :) 
Lower bound: 0 
Upper bound: 2"
1,13,4,"1.13.4","AM4","Pie","$",1,"We are sticking with our response from round 2. I would definitely disregard the paragraph in this round, as it is not attractive - from a solidarity perspective.","Wir behalten unsere Antwort aus Runde 2 bei. Ich würde den Paragraphen bei dieser Runde auf jeden Fall außer Acht lassen, da er nicht attraktiv ist - solidarisch gesehen.",0,1,"H","no","pareto dominance arguments","(1,ASL,Y), (2,AM2,$), (3,AML,Y)",13,"Team: 1 
Game: AM4 
Decision: $ 
Message: Wir behalten unsere Antwort aus Runde 2 bei. Ich würde den Paragraphen bei dieser Runde auf jeden Fall außer Acht lassen, da er nicht attraktiv ist - solidarisch gesehen.","Team: 1 
Game: S2 
Decision: § 
Message: dieselbe idee wie immer. ich hoffe, dass wir dieselbe ideen hatten :) 
Lower bound: 0","Team: 1 
Game: S2 
Decision: § 
Message: dieselbe idee wie immer. ich hoffe, dass wir dieselbe ideen hatten :) 
Lower bound: 0 
Upper bound: 1"
1,13,5,"1.13.5","ALL","X-Y","Y",1,"Team 2 once again assumes our selfishness.","Team 2 geht ein weiteres Mal von unserem Egoismus aus.",2,2,"H","no","none","(1,ASL,Y), (2,AM2,$), (3,AML,Y), (4,AM4,$)",13,"Team: 1 
Game: ALL 
Decision: Y 
Message: Team 2 geht ein weiteres Mal von unserem Egoismus aus.","Team: 1 
Game: S2 
Decision: § 
Message: dieselbe idee wie immer. ich hoffe, dass wir dieselbe ideen hatten :) 
Lower bound: 2","Team: 1 
Game: S2 
Decision: § 
Message: dieselbe idee wie immer. ich hoffe, dass wir dieselbe ideen hatten :) 
Lower bound: 0 
Upper bound: 2"
1,13,6,"1.13.6","S2","Pie","$",1,"Same game as before, disregarding paragraphs as unattractive. Would take $, as it has been proven that the first option is more likely to be chosen than the second, even if they have the same meaning.","Selbes Spiel wie vorhin, Paragraphen außer Acht lassen, da unattraktiv. Würde $ nehmen, da es nachgewiesen ist, dass eher die erste Antwortmöglichkeit genommen wird als die zweite - bei selber Bedeutung.",1,1,"H","$","pareto dominance arguments","(1,ASL,Y), (2,AM2,$), (3,AML,Y), (4,AM4,$), (5,ALL,Y)",13,"Team: 1 
Game: S2 
Decision: $ 
Message: Selbes Spiel wie vorhin, Paragraphen außer Acht lassen, da unattraktiv. Würde $ nehmen, da es nachgewiesen ist, dass eher die erste Antwortmöglichkeit genommen wird als die zweite - bei selber Bedeutung.","Team: 1 
Game: S2 
Decision: § 
Message: dieselbe idee wie immer. ich hoffe, dass wir dieselbe ideen hatten :) 
Lower bound: 1","Team: 1 
Game: S2 
Decision: § 
Message: dieselbe idee wie immer. ich hoffe, dass wir dieselbe ideen hatten :) 
Lower bound: 0 
Upper bound: 1"
1,13,7,"1.13.7","SL","X-Y","X",1,"Team 2 - for simplicity's sake - once again chooses the first of the two options, just like us.","Wieder nimmt Team 2 -der Einfachheit halber- die erste der beiden Möglichkeiten - genau wie wir.",1,1,"no","X","labels as coordination device","(1,ASL,Y), (2,AM2,$), (3,AML,Y), (4,AM4,$), (5,ALL,Y), (6,S2,$)",13,"Team: 1 
Game: SL 
Decision: X 
Message: Wieder nimmt Team 2 -der Einfachheit halber- die erste der beiden Möglichkeiten - genau wie wir.","Team: 1 
Game: S2 
Decision: § 
Message: dieselbe idee wie immer. ich hoffe, dass wir dieselbe ideen hatten :) 
Lower bound: 1","Team: 1 
Game: S2 
Decision: § 
Message: dieselbe idee wie immer. ich hoffe, dass wir dieselbe ideen hatten :) 
Lower bound: 0 
Upper bound: 1"
1,13,8,"1.13.8","S1","Pie","$",1,"... (I don't like to repeat myself.)","... (Ich wiederhole mich ungern.)",1,1,"no","$","labels as coordination device","(1,ASL,Y), (2,AM2,$), (3,AML,Y), (4,AM4,$), (5,ALL,Y), (6,S2,$), (7,SL,X)",13,"Team: 1 
Game: S1 
Decision: $ 
Message: ... (Ich wiederhole mich ungern.)","Team: 1 
Game: S2 
Decision: § 
Message: dieselbe idee wie immer. ich hoffe, dass wir dieselbe ideen hatten :) 
Lower bound: 1","Team: 1 
Game: S2 
Decision: § 
Message: dieselbe idee wie immer. ich hoffe, dass wir dieselbe ideen hatten :) 
Lower bound: 0 
Upper bound: 1"
1,14,1,"1.14.1","ASL","X-Y","Y",1,"I think we should go with alternative Y because that way both our team and team 2, with whom we play together, will receive the same number of coins - 5. That seems to be the fairest decision to me. Although I don't really understand the part about 5,10...?","ich glaube wir sollten Alternative Y nehmen weil da bekommen wir und team 2, mit dem wir zusammen spielen die gleiche Anzahl an Talern - 5 das scheint mir als die gerechteste Entscheidung? obwohl ich das mit 5,10 nicht wirklich verstehe...?",0,0,"no","no","none","no history",14,"Team: 1 
Game: ASL 
Decision: Y 
Message: ich glaube wir sollten Alternative Y nehmen weil da bekommen wir und team 2, mit dem wir zusammen spielen die gleiche Anzahl an Talern - 5 das scheint mir als die gerechteste Entscheidung? obwohl ich das mit 5,10 nicht wirklich verstehe...?","Team: 1 
Game: S2 
Decision: § 
Message: dieselbe idee wie immer. ich hoffe, dass wir dieselbe ideen hatten :) 
Lower bound: 0","Team: 1 
Game: S2 
Decision: § 
Message: dieselbe idee wie immer. ich hoffe, dass wir dieselbe ideen hatten :) 
Lower bound: 0 
Upper bound: 0"
1,14,2,"1.14.2","AM2","Pie","$",1,"Team 2 would of course choose $ for a larger payoff for them, and besides, the other 2 are identical. I say we take $.","team 2 würde auch das nehmen obwohl weniger punke für sie, weil ansonsten gibt es 2 Alternativen team 2 würde natürlich $ auswählen größeren payoff für sie und außerdem sind die anderen 2 identisch. ich sage wir nehmen $",1,1,"H","no","payoffs as coordination device","(1,ASL,Y)",14,"Team: 1 
Game: AM2 
Decision: $ 
Message: team 2 würde auch das nehmen obwohl weniger punke für sie, weil ansonsten gibt es 2 Alternativen team 2 würde natürlich $ auswählen größeren payoff für sie und außerdem sind die anderen 2 identisch. ich sage wir nehmen $","Team: 1 
Game: S2 
Decision: § 
Message: dieselbe idee wie immer. ich hoffe, dass wir dieselbe ideen hatten :) 
Lower bound: 1","Team: 1 
Game: S2 
Decision: § 
Message: dieselbe idee wie immer. ich hoffe, dass wir dieselbe ideen hatten :) 
Lower bound: 0 
Upper bound: 1"
1,14,3,"1.14.3","AML","X-Y","Y",1,"I don't know, the difference is not very big between the payoffs... pure luck. I suggest we go with Y.","Ich weiß es nicht, der Unterschied ist nicht sehr groß zwischen den payoffs.. reine Glückssache ich schlage vor wir nehmen Y",0,0,"no","no","none","(1,ASL,Y), (2,AM2,$)",14,"Team: 1 
Game: AML 
Decision: Y 
Message: Ich weiß es nicht, der Unterschied ist nicht sehr groß zwischen den payoffs.. reine Glückssache ich schlage vor wir nehmen Y","Team: 1 
Game: S2 
Decision: § 
Message: dieselbe idee wie immer. ich hoffe, dass wir dieselbe ideen hatten :) 
Lower bound: 0","Team: 1 
Game: S2 
Decision: § 
Message: dieselbe idee wie immer. ich hoffe, dass wir dieselbe ideen hatten :) 
Lower bound: 0 
Upper bound: 0"
1,14,4,"1.14.4","AM4","Pie","$",1,"I think they would choose $ again, firstly because 7 is the highest payoff for them, and secondly because otherwise we have 2 alternatives with the same payoff of 7, which is the maximum.","Ich denke sie würden wieder $ auswählen, zum einen weil 7 das größte payoff für sie ist zum anderen weil wir ansonsten 2 Alternativen haben mit dem selben payoff von 7 was das maximum ist",1,1,"H","no","payoffs as coordination device","(1,ASL,Y), (2,AM2,$), (3,AML,Y)",14,"Team: 1 
Game: AM4 
Decision: $ 
Message: Ich denke sie würden wieder $ auswählen, zum einen weil 7 das größte payoff für sie ist zum anderen weil wir ansonsten 2 Alternativen haben mit dem selben payoff von 7 was das maximum ist","Team: 1 
Game: S2 
Decision: § 
Message: dieselbe idee wie immer. ich hoffe, dass wir dieselbe ideen hatten :) 
Lower bound: 1","Team: 1 
Game: S2 
Decision: § 
Message: dieselbe idee wie immer. ich hoffe, dass wir dieselbe ideen hatten :) 
Lower bound: 0 
Upper bound: 1"
1,14,5,"1.14.5","ALL","X-Y","X",1,"I think you would choose X because it has more points for you, but on the other hand, if you think like me that we would choose more points... I don't know.","ich glaube sie würden X auswählen, weil mehr Punke für sie aber andererseits wenn sie wie mich denken dass wir uns für mehr punke entscheiden würden... ich weiß es nicht",2,2,"H","no","none","(1,ASL,Y), (2,AM2,$), (3,AML,Y), (4,AM4,$)",14,"Team: 1 
Game: ALL 
Decision: X 
Message: ich glaube sie würden X auswählen, weil mehr Punke für sie aber andererseits wenn sie wie mich denken dass wir uns für mehr punke entscheiden würden... ich weiß es nicht","Team: 1 
Game: S2 
Decision: § 
Message: dieselbe idee wie immer. ich hoffe, dass wir dieselbe ideen hatten :) 
Lower bound: 2","Team: 1 
Game: S2 
Decision: § 
Message: dieselbe idee wie immer. ich hoffe, dass wir dieselbe ideen hatten :) 
Lower bound: 0 
Upper bound: 2"
1,14,6,"1.14.6","S2","Pie","#",1,"Haha, that's crazy... in any case, it's definitely not §, but which of the two I don't know is also pure luck.","hah das ist krass...auf jeden fall nicht § aber was von den beiden weiß ich nicht ist auch reines Glück",0,0,"H","no","none","(1,ASL,Y), (2,AM2,$), (3,AML,Y), (4,AM4,$), (5,ALL,X)",14,"Team: 1 
Game: S2 
Decision: # 
Message: hah das ist krass...auf jeden fall nicht § aber was von den beiden weiß ich nicht ist auch reines Glück","Team: 1 
Game: S2 
Decision: § 
Message: dieselbe idee wie immer. ich hoffe, dass wir dieselbe ideen hatten :) 
Lower bound: 0","Team: 1 
Game: S2 
Decision: § 
Message: dieselbe idee wie immer. ich hoffe, dass wir dieselbe ideen hatten :) 
Lower bound: 0 
Upper bound: 0"
1,14,7,"1.14.7","SL","X-Y","X",1,"""Ugh, here we go again, the same thing. No team has any incentive, it's just pure luck here no matter what we do.""","pff hier schon wieder das selbe, kein team hat irgendeiner Anreiz auch hier ist es reines Glück egal was wir nehmen",0,0,"~","~","none","(1,ASL,Y), (2,AM2,$), (3,AML,Y), (4,AM4,$), (5,ALL,X), (6,S2,#)",14,"Team: 1 
Game: SL 
Decision: X 
Message: pff hier schon wieder das selbe, kein team hat irgendeiner Anreiz auch hier ist es reines Glück egal was wir nehmen","Team: 1 
Game: S2 
Decision: § 
Message: dieselbe idee wie immer. ich hoffe, dass wir dieselbe ideen hatten :) 
Lower bound: 0","Team: 1 
Game: S2 
Decision: § 
Message: dieselbe idee wie immer. ich hoffe, dass wir dieselbe ideen hatten :) 
Lower bound: 0 
Upper bound: 0"
1,14,8,"1.14.8","S1","Pie","#",1,"Are they making fun of us, right? :D  No idea","die machen sich über uns lustig oder? :D keine Ahnung",0,0,"no","no","none","(1,ASL,Y), (2,AM2,$), (3,AML,Y), (4,AM4,$), (5,ALL,X), (6,S2,#), (7,SL,X)",14,"Team: 1 
Game: S1 
Decision: # 
Message: die machen sich über uns lustig oder? :D keine Ahnung","Team: 1 
Game: S2 
Decision: § 
Message: dieselbe idee wie immer. ich hoffe, dass wir dieselbe ideen hatten :) 
Lower bound: 0","Team: 1 
Game: S2 
Decision: § 
Message: dieselbe idee wie immer. ich hoffe, dass wir dieselbe ideen hatten :) 
Lower bound: 0 
Upper bound: 0"
1,2,1,"1.2.1","ASL","X-Y","X",1,"Well, the difference isn't big, so it doesn't matter. We can hope for their greed and choose X. The problem is, if they think the same way, we've lost, and we don't know what amounts will come next. But I would try to go with X as a pair.","naja der unterschied ist nicht groß also egal. wir können auf die gier von denen hoffen und X wählen. das problem ist, wenn die genauso denken, haben wir verloren und wir wissen nicht welche summen als nächstes kommen ich würde aber mal versuchen, zu zweit auf X zu gehen",2,2,"H","no","none","no history",2,"Team: 1 
Game: ASL 
Decision: X 
Message: naja der unterschied ist nicht groß also egal. wir können auf die gier von denen hoffen und X wählen. das problem ist, wenn die genauso denken, haben wir verloren und wir wissen nicht welche summen als nächstes kommen ich würde aber mal versuchen, zu zweit auf X zu gehen","Team: 1 
Game: S2 
Decision: § 
Message: dieselbe idee wie immer. ich hoffe, dass wir dieselbe ideen hatten :) 
Lower bound: 2","Team: 1 
Game: S2 
Decision: § 
Message: dieselbe idee wie immer. ich hoffe, dass wir dieselbe ideen hatten :) 
Lower bound: 0 
Upper bound: 2"
1,2,2,"1.2.2","AM2","Pie","$",1,"It would make sense to go for $. There is only one way to clearly determine it for the other team. If we do something else, it's a 50/50 chance, even if they would give us one more coin. I just hope they think the same way in this case.","es würde sinn machen auf $ zu gehen, weil es davon nur eine möglichkeit gibt eindeutig bestimmbar für das andere team wenn wir was anderes machen ist die 50/50, selbst wenn die uns einen taler mehr gönnen würden. ich hoffe nur die denken in dem fall auch so",1,2,"no","$","payoffs as coordination device","(1,ASL,X)",2,"Team: 1 
Game: AM2 
Decision: $ 
Message: es würde sinn machen auf $ zu gehen, weil es davon nur eine möglichkeit gibt eindeutig bestimmbar für das andere team wenn wir was anderes machen ist die 50/50, selbst wenn die uns einen taler mehr gönnen würden. ich hoffe nur die denken in dem fall auch so","Team: 1 
Game: S2 
Decision: § 
Message: dieselbe idee wie immer. ich hoffe, dass wir dieselbe ideen hatten :) 
Lower bound: 1","Team: 1 
Game: S2 
Decision: § 
Message: dieselbe idee wie immer. ich hoffe, dass wir dieselbe ideen hatten :) 
Lower bound: 0 
Upper bound: 2"
1,2,3,"1.2.3","AML","X-Y","X",1,"The problem is that we can't learn anything from them in terms of how they act and think because all decisions are made one after the other. In this case, we would have to check different options, so you choose Y and I choose X, and then let chance decide. I would say I go with X and you go with Y.","das problem ist, dass wir nichts von denen lernen können im sinne wie sie handeln und denken weil alle entscheidungen nacheinander getrofffen werden würde daher in diesem fall verschiedenes ankreuzen, also du Y und ich X und dann den zufall entscheiden lassen. ich geh auf X, du auf Y würde ich sagen",0,0,"no","no","none","(1,ASL,X), (2,AM2,$)",2,"Team: 1 
Game: AML 
Decision: X 
Message: das problem ist, dass wir nichts von denen lernen können im sinne wie sie handeln und denken weil alle entscheidungen nacheinander getrofffen werden würde daher in diesem fall verschiedenes ankreuzen, also du Y und ich X und dann den zufall entscheiden lassen. ich geh auf X, du auf Y würde ich sagen","Team: 1 
Game: S2 
Decision: § 
Message: dieselbe idee wie immer. ich hoffe, dass wir dieselbe ideen hatten :) 
Lower bound: 0","Team: 1 
Game: S2 
Decision: § 
Message: dieselbe idee wie immer. ich hoffe, dass wir dieselbe ideen hatten :) 
Lower bound: 0 
Upper bound: 0"
1,2,4,"1.2.4","AM4","Pie","§",1,"Difficult. One could focus on the color as a unique selling point for us. But I doubt they think that way here. I really don't know, but I'll focus on the color.","schwierig man könnte auf die farbe als alleinstellungsmerkmal gehen wäre für uns §. ich bezweifle aber dass die so denken hier weiß ich echt nich aber ich geh mal auf die farbe, also §",0,1,"no","§","labels as coordination device","(1,ASL,X), (2,AM2,$), (3,AML,X)",2,"Team: 1 
Game: AM4 
Decision: § 
Message: schwierig man könnte auf die farbe als alleinstellungsmerkmal gehen wäre für uns §. ich bezweifle aber dass die so denken hier weiß ich echt nich aber ich geh mal auf die farbe, also §","Team: 1 
Game: S2 
Decision: § 
Message: dieselbe idee wie immer. ich hoffe, dass wir dieselbe ideen hatten :) 
Lower bound: 0","Team: 1 
Game: S2 
Decision: § 
Message: dieselbe idee wie immer. ich hoffe, dass wir dieselbe ideen hatten :) 
Lower bound: 0 
Upper bound: 1"
1,2,5,"1.2.5","ALL","X-Y","X",1,"""Same situation, would make different choices again and hope for luck.""","gleiche situation würde wieder verschiedene machen und auf zufall hoffen",0,0,"no","no","none","(1,ASL,X), (2,AM2,$), (3,AML,X), (4,AM4,§)",2,"Team: 1 
Game: ALL 
Decision: X 
Message: gleiche situation würde wieder verschiedene machen und auf zufall hoffen","Team: 1 
Game: S2 
Decision: § 
Message: dieselbe idee wie immer. ich hoffe, dass wir dieselbe ideen hatten :) 
Lower bound: 0","Team: 1 
Game: S2 
Decision: § 
Message: dieselbe idee wie immer. ich hoffe, dass wir dieselbe ideen hatten :) 
Lower bound: 0 
Upper bound: 0"
1,2,6,"1.2.6","S2","Pie","$",1,"This is difficult. Color would be a characteristic again, but whether they are smart enough to come up with this idea... I believe they would rather choose $ or hashtag (both different), and then hope for luck. We can also do that, I choose $.","das ist schwierig. farbe wäre wieder ein merkmal aber ob die schlau genug sind auf diese idee zu kommen.. glaube eher dass sie $ oder raute wählen (beide verschieden), und dann auf den zufall hoffen können wir auch. ich mach $",1,1,"no","~","none","(1,ASL,X), (2,AM2,$), (3,AML,X), (4,AM4,§), (5,ALL,X)",2,"Team: 1 
Game: S2 
Decision: $ 
Message: das ist schwierig. farbe wäre wieder ein merkmal aber ob die schlau genug sind auf diese idee zu kommen.. glaube eher dass sie $ oder raute wählen (beide verschieden), und dann auf den zufall hoffen können wir auch. ich mach $","Team: 1 
Game: S2 
Decision: § 
Message: dieselbe idee wie immer. ich hoffe, dass wir dieselbe ideen hatten :) 
Lower bound: 1","Team: 1 
Game: S2 
Decision: § 
Message: dieselbe idee wie immer. ich hoffe, dass wir dieselbe ideen hatten :) 
Lower bound: 0 
Upper bound: 1"
1,2,7,"1.2.7","SL","X-Y","X",1,"Clear thing, random decisions can go in different ways again, but it could be that both go for X, simply because it's at the top. I'll go for X, you do what feels right to you.","klare sache, zufallsentscheidung können wieder auf verschieden fgehen kann aber sein dass die beide auf X gehen, einfach weils an erster stelle steht ich mach X, mach du wie du dich fühlst",0,1,"~","X","labels as coordination device","(1,ASL,X), (2,AM2,$), (3,AML,X), (4,AM4,§), (5,ALL,X), (6,S2,$)",2,"Team: 1 
Game: SL 
Decision: X 
Message: klare sache, zufallsentscheidung können wieder auf verschieden fgehen kann aber sein dass die beide auf X gehen, einfach weils an erster stelle steht ich mach X, mach du wie du dich fühlst","Team: 1 
Game: S2 
Decision: § 
Message: dieselbe idee wie immer. ich hoffe, dass wir dieselbe ideen hatten :) 
Lower bound: 0","Team: 1 
Game: S2 
Decision: § 
Message: dieselbe idee wie immer. ich hoffe, dass wir dieselbe ideen hatten :) 
Lower bound: 0 
Upper bound: 1"
1,2,8,"1.2.8","S1","Pie","§",1,"We need to focus on the color, definitely.","da müssen wir auf die farbe gehen ganz sicher",0,0,"no","§","none","(1,ASL,X), (2,AM2,$), (3,AML,X), (4,AM4,§), (5,ALL,X), (6,S2,$), (7,SL,X)",2,"Team: 1 
Game: S1 
Decision: § 
Message: da müssen wir auf die farbe gehen ganz sicher","Team: 1 
Game: S2 
Decision: § 
Message: dieselbe idee wie immer. ich hoffe, dass wir dieselbe ideen hatten :) 
Lower bound: 0","Team: 1 
Game: S2 
Decision: § 
Message: dieselbe idee wie immer. ich hoffe, dass wir dieselbe ideen hatten :) 
Lower bound: 0 
Upper bound: 0"
1,3,1,"1.3.1","ASL","X-Y","X",2,"In this situation, it doesn't matter whether you choose X or Y, as the difference in potential winnings is 0.10 talers. Nevertheless, I would still like to choose X.","In dieser Situation ist es egal ob man X oder Y wählt, da der Unterschied zwischen den potenzielen Gewinn 0,10 Taler ist.... Trotzdem würde ich gerne X wählen.",0,0,"~","X","none","no history",3,"Team: 2 
Game: ASL 
Decision: X 
Message: In dieser Situation ist es egal ob man X oder Y wählt, da der Unterschied zwischen den potenzielen Gewinn 0,10 Taler ist.... Trotzdem würde ich gerne X wählen.","Team: 1 
Game: S2 
Decision: § 
Message: dieselbe idee wie immer. ich hoffe, dass wir dieselbe ideen hatten :) 
Lower bound: 0","Team: 1 
Game: S2 
Decision: § 
Message: dieselbe idee wie immer. ich hoffe, dass wir dieselbe ideen hatten :) 
Lower bound: 0 
Upper bound: 0"
1,3,2,"1.3.2","AM2","Pie","$",2,"Here I will choose $, as the difference is 1 euro.... In my opinion, the other 2 symbols are the same. If you have a different opinion, I would also accept it.","Hier werde ich $ wählen, da der Unterschied 1 euro ist.... Die anderen 2 Symbolen sind meiner Meinung nach gleich. Falls du etwas anderes gegeben hast, würde ich auch deine Meinung akzeptieren.",0,0,"H","no","none","(1,ASL,X)",3,"Team: 2 
Game: AM2 
Decision: $ 
Message: Hier werde ich $ wählen, da der Unterschied 1 euro ist.... Die anderen 2 Symbolen sind meiner Meinung nach gleich. Falls du etwas anderes gegeben hast, würde ich auch deine Meinung akzeptieren.","Team: 1 
Game: S2 
Decision: § 
Message: dieselbe idee wie immer. ich hoffe, dass wir dieselbe ideen hatten :) 
Lower bound: 0","Team: 1 
Game: S2 
Decision: § 
Message: dieselbe idee wie immer. ich hoffe, dass wir dieselbe ideen hatten :) 
Lower bound: 0 
Upper bound: 0"
1,3,3,"1.3.3","AML","X-Y","X",2,"Here it is clear, my decision is X.","Hier es ist doch klar, meine Entscheidung ist X.",0,0,"H","no","none","(1,ASL,X), (2,AM2,$)",3,"Team: 2 
Game: AML 
Decision: X 
Message: Hier es ist doch klar, meine Entscheidung ist X.","Team: 1 
Game: S2 
Decision: § 
Message: dieselbe idee wie immer. ich hoffe, dass wir dieselbe ideen hatten :) 
Lower bound: 0","Team: 1 
Game: S2 
Decision: § 
Message: dieselbe idee wie immer. ich hoffe, dass wir dieselbe ideen hatten :) 
Lower bound: 0 
Upper bound: 0"
1,3,4,"1.3.4","AM4","Pie","$",2,"My decision here is either $ or #.... I am more inclined towards $, as it would bring us more profit. As a compromise, we could also choose #. It's frustrating that as Team 2, we always have the lower values. The others have 6,7,7 and we have 5,6,7..... If we were Team 1, it would be easier to make a decision.","Meine Entscheidung hier ist entweder $ oder #.... eher bin ich für den $, da wir mehr Gewinn haben. Als Zwischenvariant kann man auch die # wählen. Es ist doof, dass wir als Team 2 immer die niedrigen Werte haben. Die anderen haben 6,7,7 und wir 5,6,7 ..... Wenn wir Team 1 wären, könnte man leichter eine Entscheidung treffen.",0,0,"H","no","none","(1,ASL,X), (2,AM2,$), (3,AML,X)",3,"Team: 2 
Game: AM4 
Decision: $ 
Message: Meine Entscheidung hier ist entweder $ oder #.... eher bin ich für den $, da wir mehr Gewinn haben. Als Zwischenvariant kann man auch die # wählen. Es ist doof, dass wir als Team 2 immer die niedrigen Werte haben. Die anderen haben 6,7,7 und wir 5,6,7 ..... Wenn wir Team 1 wären, könnte man leichter eine Entscheidung treffen.","Team: 1 
Game: S2 
Decision: § 
Message: dieselbe idee wie immer. ich hoffe, dass wir dieselbe ideen hatten :) 
Lower bound: 0","Team: 1 
Game: S2 
Decision: § 
Message: dieselbe idee wie immer. ich hoffe, dass wir dieselbe ideen hatten :) 
Lower bound: 0 
Upper bound: 0"
1,3,5,"1.3.5","ALL","X-Y","X",2,"Finally something equivalent! Alternative X 10000% :)","Endlich etwas gleichgemäßen! Alternative X 10000 % :)",0,0,"H","no","none","(1,ASL,X), (2,AM2,$), (3,AML,X), (4,AM4,$)",3,"Team: 2 
Game: ALL 
Decision: X 
Message: Endlich etwas gleichgemäßen! Alternative X 10000 % :)","Team: 1 
Game: S2 
Decision: § 
Message: dieselbe idee wie immer. ich hoffe, dass wir dieselbe ideen hatten :) 
Lower bound: 0","Team: 1 
Game: S2 
Decision: § 
Message: dieselbe idee wie immer. ich hoffe, dass wir dieselbe ideen hatten :) 
Lower bound: 0 
Upper bound: 0"
1,3,6,"1.3.6","S2","Pie","$",2,"Either $ or # Here we have the same certainty. I would choose this one, which the other team has chosen. I would be willing to accept the other opinion if it is between $ or #.","entweder $ oder # Hier haben wir ja das gleiche Gewiinn. Ich würde diese wählen, welches das andere Team gewählt haben. Ich würde gerne die andere Meinung akzeptieren wenn es zwischen $ oder # ist.",0,1,"H","no","none","(1,ASL,X), (2,AM2,$), (3,AML,X), (4,AM4,$), (5,ALL,X)",3,"Team: 2 
Game: S2 
Decision: $ 
Message: entweder $ oder # Hier haben wir ja das gleiche Gewiinn. Ich würde diese wählen, welches das andere Team gewählt haben. Ich würde gerne die andere Meinung akzeptieren wenn es zwischen $ oder # ist.","Team: 1 
Game: S2 
Decision: § 
Message: dieselbe idee wie immer. ich hoffe, dass wir dieselbe ideen hatten :) 
Lower bound: 0","Team: 1 
Game: S2 
Decision: § 
Message: dieselbe idee wie immer. ich hoffe, dass wir dieselbe ideen hatten :) 
Lower bound: 0 
Upper bound: 1"
1,3,7,"1.3.7","SL","X-Y","X",2,"It doesn't matter which alternative one would choose. Why don't we accept the first one? If you choose X, I will also choose X.","Hier ist es egal, welche Alternative man wählen würde. Warum akzeptieren wir nicht die erste? Wenn du X ausgweählt hast, werde ich auch X wählen.",0,0,"~","X","none","(1,ASL,X), (2,AM2,$), (3,AML,X), (4,AM4,$), (5,ALL,X), (6,S2,$)",3,"Team: 2 
Game: SL 
Decision: X 
Message: Hier ist es egal, welche Alternative man wählen würde. Warum akzeptieren wir nicht die erste? Wenn du X ausgweählt hast, werde ich auch X wählen.","Team: 1 
Game: S2 
Decision: § 
Message: dieselbe idee wie immer. ich hoffe, dass wir dieselbe ideen hatten :) 
Lower bound: 0","Team: 1 
Game: S2 
Decision: § 
Message: dieselbe idee wie immer. ich hoffe, dass wir dieselbe ideen hatten :) 
Lower bound: 0 
Upper bound: 0"
1,3,8,"1.3.8","S1","Pie","$",2,"The same situation again. Once again, I choose the first option, it doesn't matter which one you choose. I would like to accept the decision of the other team so that we choose the same decision 100%.","Wieder dieselbe Situation. Wieder wähle ich die erste Entscheidung, es ist ja egal, welche man auswählt. Ich würde gerne die Entscheidung des anderen Teams akzeptieren,damit man 100 % dieselbe Entscheidung auswählt.",0,1,"~","$","none","(1,ASL,X), (2,AM2,$), (3,AML,X), (4,AM4,$), (5,ALL,X), (6,S2,$), (7,SL,X)",3,"Team: 2 
Game: S1 
Decision: $ 
Message: Wieder dieselbe Situation. Wieder wähle ich die erste Entscheidung, es ist ja egal, welche man auswählt. Ich würde gerne die Entscheidung des anderen Teams akzeptieren,damit man 100 % dieselbe Entscheidung auswählt.","Team: 1 
Game: S2 
Decision: § 
Message: dieselbe idee wie immer. ich hoffe, dass wir dieselbe ideen hatten :) 
Lower bound: 0","Team: 1 
Game: S2 
Decision: § 
Message: dieselbe idee wie immer. ich hoffe, dass wir dieselbe ideen hatten :) 
Lower bound: 0 
Upper bound: 1"
1,4,1,"1.4.1","ASL","X-Y","Y",2,"I would suggest choosing Y, as Team 1 is definitely choosing Y, and it's better to win 0.10 talers less than not winning at all, as I understand it, we win if our decision matches Team 1's decision, right?","ich würde vorschlagen Y zu wählen, da Team 1 bestimt Y wählt und besser 0,10 Taler weniger zu gewinnen als gar nicht so wie ich verstanden habe wir gewinnen wenn unsere Entscheidung gleich mit der Entscheidung vom Team 1 ist oder?",1,1,"no","no","none","no history",4,"Team: 2 
Game: ASL 
Decision: Y 
Message: ich würde vorschlagen Y zu wählen, da Team 1 bestimt Y wählt und besser 0,10 Taler weniger zu gewinnen als gar nicht so wie ich verstanden habe wir gewinnen wenn unsere Entscheidung gleich mit der Entscheidung vom Team 1 ist oder?","Team: 1 
Game: S2 
Decision: § 
Message: dieselbe idee wie immer. ich hoffe, dass wir dieselbe ideen hatten :) 
Lower bound: 1","Team: 1 
Game: S2 
Decision: § 
Message: dieselbe idee wie immer. ich hoffe, dass wir dieselbe ideen hatten :) 
Lower bound: 0 
Upper bound: 1"
1,4,2,"1.4.2","AM2","Pie","§",2,"Well, I don't have an argument for which one we should choose best, I would say §","tja, da habe ich kein Argument, welche wir am bestens auswählen sollen ich würde sagen §",0,0,"no","no","none","(1,ASL,Y)",4,"Team: 2 
Game: AM2 
Decision: § 
Message: tja, da habe ich kein Argument, welche wir am bestens auswählen sollen ich würde sagen §","Team: 1 
Game: S2 
Decision: § 
Message: dieselbe idee wie immer. ich hoffe, dass wir dieselbe ideen hatten :) 
Lower bound: 0","Team: 1 
Game: S2 
Decision: § 
Message: dieselbe idee wie immer. ich hoffe, dass wir dieselbe ideen hatten :) 
Lower bound: 0 
Upper bound: 0"
1,4,3,"1.4.3","AML","X-Y","X",2,"Let's choose X this time. If it doesn't work the first time, there is a chance that we will win now.","lass mal dieses mal X wählen, falls beim ersten mal nicht klappen soll, besteht die Wahrscheinlichkeit dass wir jetzt gewinnen",0,1,"no","no","none","(1,ASL,Y), (2,AM2,§)",4,"Team: 2 
Game: AML 
Decision: X 
Message: lass mal dieses mal X wählen, falls beim ersten mal nicht klappen soll, besteht die Wahrscheinlichkeit dass wir jetzt gewinnen","Team: 1 
Game: S2 
Decision: § 
Message: dieselbe idee wie immer. ich hoffe, dass wir dieselbe ideen hatten :) 
Lower bound: 0","Team: 1 
Game: S2 
Decision: § 
Message: dieselbe idee wie immer. ich hoffe, dass wir dieselbe ideen hatten :) 
Lower bound: 0 
Upper bound: 1"
1,4,4,"1.4.4","AM4","Pie","#",2,"I would say to choose (7, 6).","ich würde sagen (7, 6) auszuwählen",0,0,"no","no","none","(1,ASL,Y), (2,AM2,§), (3,AML,X)",4,"Team: 2 
Game: AM4 
Decision: # 
Message: ich würde sagen (7, 6) auszuwählen","Team: 1 
Game: S2 
Decision: § 
Message: dieselbe idee wie immer. ich hoffe, dass wir dieselbe ideen hatten :) 
Lower bound: 0","Team: 1 
Game: S2 
Decision: § 
Message: dieselbe idee wie immer. ich hoffe, dass wir dieselbe ideen hatten :) 
Lower bound: 0 
Upper bound: 0"
1,4,5,"1.4.5","ALL","X-Y","X",2,"I would like to choose X, but Team 1 will definitely choose Y, and in this case, we will win 0. Nevertheless, I would take the risk with X.","gerne würde ich mich für X entscheiden aber Team 1 entscheidet sich bestimmt für Y und in diesem Fall gewinnen wir 0 trotzdem würde ich das Risiko eingehen",1,1,"H","no","none","(1,ASL,Y), (2,AM2,§), (3,AML,X), (4,AM4,#)",4,"Team: 2 
Game: ALL 
Decision: X 
Message: gerne würde ich mich für X entscheiden aber Team 1 entscheidet sich bestimmt für Y und in diesem Fall gewinnen wir 0 trotzdem würde ich das Risiko eingehen","Team: 1 
Game: S2 
Decision: § 
Message: dieselbe idee wie immer. ich hoffe, dass wir dieselbe ideen hatten :) 
Lower bound: 1","Team: 1 
Game: S2 
Decision: § 
Message: dieselbe idee wie immer. ich hoffe, dass wir dieselbe ideen hatten :) 
Lower bound: 0 
Upper bound: 1"
1,4,6,"1.4.6","S2","Pie","$",2,"$ hoping that Team 1 also chooses $","$ mit Hoffnung dass Team 1 auch $ wählt",1,1,"no","$","none","(1,ASL,Y), (2,AM2,§), (3,AML,X), (4,AM4,#), (5,ALL,X)",4,"Team: 2 
Game: S2 
Decision: $ 
Message: $ mit Hoffnung dass Team 1 auch $ wählt","Team: 1 
Game: S2 
Decision: § 
Message: dieselbe idee wie immer. ich hoffe, dass wir dieselbe ideen hatten :) 
Lower bound: 1","Team: 1 
Game: S2 
Decision: § 
Message: dieselbe idee wie immer. ich hoffe, dass wir dieselbe ideen hatten :) 
Lower bound: 0 
Upper bound: 1"
1,4,7,"1.4.7","SL","X-Y","X",2,"There is nothing else here but 50/50. I spontaneously choose X.","hier ist nicht anderes als 50/50 spontan wähle ich X",0,0,"no","no","none","(1,ASL,Y), (2,AM2,§), (3,AML,X), (4,AM4,#), (5,ALL,X), (6,S2,$)",4,"Team: 2 
Game: SL 
Decision: X 
Message: hier ist nicht anderes als 50/50 spontan wähle ich X","Team: 1 
Game: S2 
Decision: § 
Message: dieselbe idee wie immer. ich hoffe, dass wir dieselbe ideen hatten :) 
Lower bound: 0","Team: 1 
Game: S2 
Decision: § 
Message: dieselbe idee wie immer. ich hoffe, dass wir dieselbe ideen hatten :) 
Lower bound: 0 
Upper bound: 0"
1,4,8,"1.4.8","S1","Pie","$",2,"Intuitively, I choose again $","intuitiv wähle ich wieder $",0,0,"no","no","none","(1,ASL,Y), (2,AM2,§), (3,AML,X), (4,AM4,#), (5,ALL,X), (6,S2,$), (7,SL,X)",4,"Team: 2 
Game: S1 
Decision: $ 
Message: intuitiv wähle ich wieder $","Team: 1 
Game: S2 
Decision: § 
Message: dieselbe idee wie immer. ich hoffe, dass wir dieselbe ideen hatten :) 
Lower bound: 0","Team: 1 
Game: S2 
Decision: § 
Message: dieselbe idee wie immer. ich hoffe, dass wir dieselbe ideen hatten :) 
Lower bound: 0 
Upper bound: 0"
1,5,1,"1.5.1","ASL","X-Y","Y",1,"They are almost the same, I think that in the first round Team 2 is more likely to adapt to our decision. And assumes that we choose Alternative X. Or do you think they are more likely to choose Alternative X and risk getting nothing if we choose Y?","gleichen sich ja fast, ich denke dass in der ersten Runde Team 2 sich eher unserer Entscheidung anpasst. Und davon ausgeht, dass wir Alternative X wählen. Oder meinst du die wählen eher Alternative X und riskieren nichts zu bekommen, wenn wir Y wählen ?",2,2,"H","no","none","no history",5,"Team: 1 
Game: ASL 
Decision: Y 
Message: gleichen sich ja fast, ich denke dass in der ersten Runde Team 2 sich eher unserer Entscheidung anpasst. Und davon ausgeht, dass wir Alternative X wählen. Oder meinst du die wählen eher Alternative X und riskieren nichts zu bekommen, wenn wir Y wählen ?","Team: 1 
Game: S2 
Decision: § 
Message: dieselbe idee wie immer. ich hoffe, dass wir dieselbe ideen hatten :) 
Lower bound: 2","Team: 1 
Game: S2 
Decision: § 
Message: dieselbe idee wie immer. ich hoffe, dass wir dieselbe ideen hatten :) 
Lower bound: 0 
Upper bound: 2"
1,5,2,"1.5.2","AM2","Pie","§",1,"Let's take the middle option, the lower field, shall we? We'll get just as much as in the diamond field. The other team can surely be certain that we won't choose the worse option, right? Except for the only field with more coins for Team 2.","Nehmen wir die Goldene Mitte, also das untere Feld? Da bekommen wir genauso viel wie im Rautefeld. Das andere Team kann sich doch sicher sein, dass wir nicht die schlechtere Variante nehmen, oder? Außer das einzige Feld mit mehr Taler für Team2.",2,2,"H","§","none","(1,ASL,Y)",5,"Team: 1 
Game: AM2 
Decision: § 
Message: Nehmen wir die Goldene Mitte, also das untere Feld? Da bekommen wir genauso viel wie im Rautefeld. Das andere Team kann sich doch sicher sein, dass wir nicht die schlechtere Variante nehmen, oder? Außer das einzige Feld mit mehr Taler für Team2.","Team: 1 
Game: S2 
Decision: § 
Message: dieselbe idee wie immer. ich hoffe, dass wir dieselbe ideen hatten :) 
Lower bound: 2","Team: 1 
Game: S2 
Decision: § 
Message: dieselbe idee wie immer. ich hoffe, dass wir dieselbe ideen hatten :) 
Lower bound: 0 
Upper bound: 2"
1,5,3,"1.5.3","AML","X-Y","X",1,"Here's more for Team 2. Team 2 will probably choose X in this round, it's more likely than in the first round.","Hier mal mehr für Team 2. Team 2 wird in dieser Runde vermutlich eher X wählen, ist wahrscheinlicher als in der ersten Runde.",1,1,"H","no","none","(1,ASL,Y), (2,AM2,§)",5,"Team: 1 
Game: AML 
Decision: X 
Message: Hier mal mehr für Team 2. Team 2 wird in dieser Runde vermutlich eher X wählen, ist wahrscheinlicher als in der ersten Runde.","Team: 1 
Game: S2 
Decision: § 
Message: dieselbe idee wie immer. ich hoffe, dass wir dieselbe ideen hatten :) 
Lower bound: 1","Team: 1 
Game: S2 
Decision: § 
Message: dieselbe idee wie immer. ich hoffe, dass wir dieselbe ideen hatten :) 
Lower bound: 0 
Upper bound: 1"
1,5,4,"1.5.4","AM4","Pie","#",1,"The middle field can be excluded. And then I just want more coins, so the diamond field. After all, in that field, Team 2 gets a whole 6 instead of just 5.","Mittleres Feld lässt sich ausschließen. Und dann möchte ich einfach mehr Taler, also Raute-Feld. Schließlich bekommen in dem Feld Team 2 ganze 6 anstatt nur 5.",1,1,"H","no","pareto dominance arguments","(1,ASL,Y), (2,AM2,§), (3,AML,X)",5,"Team: 1 
Game: AM4 
Decision: # 
Message: Mittleres Feld lässt sich ausschließen. Und dann möchte ich einfach mehr Taler, also Raute-Feld. Schließlich bekommen in dem Feld Team 2 ganze 6 anstatt nur 5.","Team: 1 
Game: S2 
Decision: § 
Message: dieselbe idee wie immer. ich hoffe, dass wir dieselbe ideen hatten :) 
Lower bound: 1","Team: 1 
Game: S2 
Decision: § 
Message: dieselbe idee wie immer. ich hoffe, dass wir dieselbe ideen hatten :) 
Lower bound: 0 
Upper bound: 1"
1,5,5,"1.5.5","ALL","X-Y","Y",1,"These are 10 talers. No idea who will give in.","Das sind 10 Taler. Keine Ahnung wer nachgibt.",0,2,"H","no","none","(1,ASL,Y), (2,AM2,§), (3,AML,X), (4,AM4,#)",5,"Team: 1 
Game: ALL 
Decision: Y 
Message: Das sind 10 Taler. Keine Ahnung wer nachgibt.","Team: 1 
Game: S2 
Decision: § 
Message: dieselbe idee wie immer. ich hoffe, dass wir dieselbe ideen hatten :) 
Lower bound: 0","Team: 1 
Game: S2 
Decision: § 
Message: dieselbe idee wie immer. ich hoffe, dass wir dieselbe ideen hatten :) 
Lower bound: 0 
Upper bound: 2"
1,5,6,"1.5.6","S2","Pie","§",1,"Should we take the middle with fewer coins now just because the other two fields are identical and we don't know which one the other team will choose? It's better to take 5 coins instead of missing out and getting none.","sollen wir jetzt die Mitte aber mit weniger Taler nehmen, nur weil die beiden anderen Felder identisch sind und wir nicht wissen für welches sich das andere Team entscheidet? Besser 5 Taler anstatt daneben zu liegen und keine Taler zu bekommen.",1,1,"~","§","none","(1,ASL,Y), (2,AM2,§), (3,AML,X), (4,AM4,#), (5,ALL,Y)",5,"Team: 1 
Game: S2 
Decision: § 
Message: sollen wir jetzt die Mitte aber mit weniger Taler nehmen, nur weil die beiden anderen Felder identisch sind und wir nicht wissen für welches sich das andere Team entscheidet? Besser 5 Taler anstatt daneben zu liegen und keine Taler zu bekommen.","Team: 1 
Game: S2 
Decision: § 
Message: dieselbe idee wie immer. ich hoffe, dass wir dieselbe ideen hatten :) 
Lower bound: 1","Team: 1 
Game: S2 
Decision: § 
Message: dieselbe idee wie immer. ich hoffe, dass wir dieselbe ideen hatten :) 
Lower bound: 0 
Upper bound: 1"
1,5,7,"1.5.7","SL","X-Y","X",1,"Here the distributions are identical again. I'll just take the top one, assuming that Team 2 does the same.","Hier sind die Verteilungen auch wieder identisch. Ich nehme einfach das oberste, in der Annahme, das Team 2 macht es genauso.",1,1,"~","X","labels as coordination device","(1,ASL,Y), (2,AM2,§), (3,AML,X), (4,AM4,#), (5,ALL,Y), (6,S2,§)",5,"Team: 1 
Game: SL 
Decision: X 
Message: Hier sind die Verteilungen auch wieder identisch. Ich nehme einfach das oberste, in der Annahme, das Team 2 macht es genauso.","Team: 1 
Game: S2 
Decision: § 
Message: dieselbe idee wie immer. ich hoffe, dass wir dieselbe ideen hatten :) 
Lower bound: 1","Team: 1 
Game: S2 
Decision: § 
Message: dieselbe idee wie immer. ich hoffe, dass wir dieselbe ideen hatten :) 
Lower bound: 0 
Upper bound: 1"
1,5,8,"1.5.8","S1","Pie","§",1,"Clearly the middle, that's where both teams meet.","Eindeutig die Mitte, da treffen sich beide Teams.",1,1,"no","§","labels as coordination device","(1,ASL,Y), (2,AM2,§), (3,AML,X), (4,AM4,#), (5,ALL,Y), (6,S2,§), (7,SL,X)",5,"Team: 1 
Game: S1 
Decision: § 
Message: Eindeutig die Mitte, da treffen sich beide Teams.","Team: 1 
Game: S2 
Decision: § 
Message: dieselbe idee wie immer. ich hoffe, dass wir dieselbe ideen hatten :) 
Lower bound: 1","Team: 1 
Game: S2 
Decision: § 
Message: dieselbe idee wie immer. ich hoffe, dass wir dieselbe ideen hatten :) 
Lower bound: 0 
Upper bound: 1"
1,6,1,"1.6.1","ASL","X-Y","Y",1,"Hey partner, I hope for good cooperation :) Should we choose the alternative that is most favorable for them or make a selfish decision? If we choose for them, it could also be that the other team has the same thought. However, based on experience, I am inclined to choose Y, because most people tend to make selfish decisions in experiments. If you really want to choose X, I will also take it as a last resort, so if you do not explicitly limit yourself to one thing, I will choose Y and then please you too :) By the way, what number are you? I'm 2. Let's always make decisions for the future that maximize welfare, so let's choose what benefits everyone the most :)","Hey Partner, ich hoffe auf gute Zusammenarbeit :) Sollen wir die für sie günstige Alternative wählen oder uns egoistisch entscheiden? Wenn wir uns für sie entscheiden, könnte es aber auch sein, dass das andere Team den gleichen Gedanken hat. Ich wäre aber aus Erfahrung dazu geneigt, Y zu wählen, weil sich die meinsten leute bei den Experimenten egoistisch entscheiden. Wenn du unbedingt X nehmen willst, nehme ich es auch im Zweifelsfall, also wenn du dich nicht ausdrücklich auf eine sache beschränkst, wähle ich Y und du dann bitte auch :) Nebenbei, welche Nummer bist du? Ich 2. Lass uns für zukünftige Entscheidungen uns immer wohlfahrtsmaximierend entscheiden, also uns für das entscheiden, wo alle am meisten davon haben :)",2,2,"H","no","none","no history",6,"Team: 1 
Game: ASL 
Decision: Y 
Message: Hey Partner, ich hoffe auf gute Zusammenarbeit :) Sollen wir die für sie günstige Alternative wählen oder uns egoistisch entscheiden? Wenn wir uns für sie entscheiden, könnte es aber auch sein, dass das andere Team den gleichen Gedanken hat. Ich wäre aber aus Erfahrung dazu geneigt, Y zu wählen, weil sich die meinsten leute bei den Experimenten egoistisch entscheiden. Wenn du unbedingt X nehmen willst, nehme ich es auch im Zweifelsfall, also wenn du dich nicht ausdrücklich auf eine sache beschränkst, wähle ich Y und du dann bitte auch :) Nebenbei, welche Nummer bist du? Ich 2. Lass uns für zukünftige Entscheidungen uns immer wohlfahrtsmaximierend entscheiden, also uns für das entscheiden, wo alle am meisten davon haben :)","Team: 1 
Game: S2 
Decision: § 
Message: dieselbe idee wie immer. ich hoffe, dass wir dieselbe ideen hatten :) 
Lower bound: 2","Team: 1 
Game: S2 
Decision: § 
Message: dieselbe idee wie immer. ich hoffe, dass wir dieselbe ideen hatten :) 
Lower bound: 0 
Upper bound: 2"
1,6,2,"1.6.2","AM2","Pie","§",1,"Here I would go for §, because it has a different color and hopefully the other team will see it that way too. As a basic rule, I would say it's best to always decide based on this: If there won't be a 50:50 distribution, which apparently won't be the case, we'll either take the alternative that is furthest DOWN and/or furthest RIGHT, so if there were 4 here, we would choose bottom right. That's how I will decide in the future, as a rule of thumb :)","Hier wäre ich für §, weil das eine andere farbe hat und das andere Team das hoffentlich auch so sieht. Als Grundregel würde ich sagen, entscheiden wir am besten immer danach: Wenn es keine 50:50 verteilung geben wird, was scheinbar nicht der Fall sein wird, nehmen wir entweder die Alternative die am weitesten UNTEN ist und/oder am weitesten RECHTS. also wenn es hier 4 gäbe, würden wir unten rechts wählen, so werde ich mich in Zukunft entscheiden, als Faustformel :)",1,1,"no","§","labels as coordination device","(1,ASL,Y)",6,"Team: 1 
Game: AM2 
Decision: § 
Message: Hier wäre ich für §, weil das eine andere farbe hat und das andere Team das hoffentlich auch so sieht. Als Grundregel würde ich sagen, entscheiden wir am besten immer danach: Wenn es keine 50:50 verteilung geben wird, was scheinbar nicht der Fall sein wird, nehmen wir entweder die Alternative die am weitesten UNTEN ist und/oder am weitesten RECHTS. also wenn es hier 4 gäbe, würden wir unten rechts wählen, so werde ich mich in Zukunft entscheiden, als Faustformel :)","Team: 1 
Game: S2 
Decision: § 
Message: dieselbe idee wie immer. ich hoffe, dass wir dieselbe ideen hatten :) 
Lower bound: 1","Team: 1 
Game: S2 
Decision: § 
Message: dieselbe idee wie immer. ich hoffe, dass wir dieselbe ideen hatten :) 
Lower bound: 0 
Upper bound: 1"
1,6,3,"1.6.3","AML","X-Y","X",1,"We just agreed on the 6 euros, so the decision X would probably be fairer here, even if it goes against the rule of thumb that I just described :D If you choose section 2, then choose X here. In case of doubt, as I said in 1., we always choose what is better for the others, because people tend to make selfish decisions. But if we can't agree at all, no one gets anything, so it's better to give up 40 cents than to receive nothing.","Wir haben uns eben die 6 Euro zugesprochen, deshalb wäre wohl hier die Entscheidung X fairer, auch wenn das gegen die Faustformel, die ich eben beschrieb verstößt :D Wenn du in 2. den §nimmst, dann wähle hier X. Im Zweifelsfall, wählen wir wie ich unter 1. gesagt habe, immer das, was für die anderen besser ist, weil Leute egoistisch entscheiden. Wenn wir uns aber gar nicht einigen bekommt niemand etwas, also lieber auf 40 cent verzichten, asl nichts zu erhalten",1,1,"H","no","none","(1,ASL,Y), (2,AM2,§)",6,"Team: 1 
Game: AML 
Decision: X 
Message: Wir haben uns eben die 6 Euro zugesprochen, deshalb wäre wohl hier die Entscheidung X fairer, auch wenn das gegen die Faustformel, die ich eben beschrieb verstößt :D Wenn du in 2. den §nimmst, dann wähle hier X. Im Zweifelsfall, wählen wir wie ich unter 1. gesagt habe, immer das, was für die anderen besser ist, weil Leute egoistisch entscheiden. Wenn wir uns aber gar nicht einigen bekommt niemand etwas, also lieber auf 40 cent verzichten, asl nichts zu erhalten","Team: 1 
Game: S2 
Decision: § 
Message: dieselbe idee wie immer. ich hoffe, dass wir dieselbe ideen hatten :) 
Lower bound: 1","Team: 1 
Game: S2 
Decision: § 
Message: dieselbe idee wie immer. ich hoffe, dass wir dieselbe ideen hatten :) 
Lower bound: 0 
Upper bound: 1"
1,6,4,"1.6.4","AM4","Pie","#",1,"""Okay, this time, section § is too unfair, so we are choosing # now because in rounds 1 and 3, we gave less and only received more than Team 2 in round 2. So it would be good to always give Team 2 and then us, alternately, more money... It seems like the rule of thumb doesn't quite work here :/""","ok, diesmal ist §zu unfair deshalb wählen wir jetzt # denn in Runde 1 und 3 haben wir uns weniger gegeben, und nur in runde 2 mehr bekommen als Team 2. also wäre es ganz gut, immer Team 2 und dann uns, jeweils im Wechsel, mehr Geld zu geben... Das mit der Faustformel scheint hier wohl nicht ganz zu funktionieren :/",1,1,"H","no","other","(1,ASL,Y), (2,AM2,§), (3,AML,X)",6,"Team: 1 
Game: AM4 
Decision: # 
Message: ok, diesmal ist §zu unfair deshalb wählen wir jetzt # denn in Runde 1 und 3 haben wir uns weniger gegeben, und nur in runde 2 mehr bekommen als Team 2. also wäre es ganz gut, immer Team 2 und dann uns, jeweils im Wechsel, mehr Geld zu geben... Das mit der Faustformel scheint hier wohl nicht ganz zu funktionieren :/","Team: 1 
Game: S2 
Decision: § 
Message: dieselbe idee wie immer. ich hoffe, dass wir dieselbe ideen hatten :) 
Lower bound: 1","Team: 1 
Game: S2 
Decision: § 
Message: dieselbe idee wie immer. ich hoffe, dass wir dieselbe ideen hatten :) 
Lower bound: 0 
Upper bound: 1"
1,6,5,"1.6.5","ALL","X-Y","X",1,"Here I would again give it to Team 2, both because we were awarded Round 4, and because the high difference leads to selfishness and many then only decide for their own team. I am pretty sure that Team 2 will choose X.","Hier würde ich es wieder Team 2 zusprechen, sowohl weil wir uns Runde 4 zugesprochen haben, als auch weil die hohe Differenz zu Egoismus verleitet und viele sich dann nur für ihr eigenes Team entscheiden. Ich bin mir ziemlich sicher, dass Team 2 sich für X entscheiden wird.",1,1,"H","no","other","(1,ASL,Y), (2,AM2,§), (3,AML,X), (4,AM4,#)",6,"Team: 1 
Game: ALL 
Decision: X 
Message: Hier würde ich es wieder Team 2 zusprechen, sowohl weil wir uns Runde 4 zugesprochen haben, als auch weil die hohe Differenz zu Egoismus verleitet und viele sich dann nur für ihr eigenes Team entscheiden. Ich bin mir ziemlich sicher, dass Team 2 sich für X entscheiden wird.","Team: 1 
Game: S2 
Decision: § 
Message: dieselbe idee wie immer. ich hoffe, dass wir dieselbe ideen hatten :) 
Lower bound: 1","Team: 1 
Game: S2 
Decision: § 
Message: dieselbe idee wie immer. ich hoffe, dass wir dieselbe ideen hatten :) 
Lower bound: 0 
Upper bound: 1"
1,6,6,"1.6.6","S2","Pie","#",1,"Let's take # again here, because everyone gets one more coin, and I don't think Team 2 is so foolish to let one coin slip through their fingers :D We have also taken Route in round 4. $ but never","Lass uns hier nochmal # nehmen, weil jeder ein Taler mehr bekommt und ich denke nicht, dass Team 2 so dumm ist, sich 1 Taler durch die Lappen gehen zu lassen :D Wir haben in Runde 4 auch schon Route genommen. aber noch nie",1,1,"H","no","pareto dominance arguments","(1,ASL,Y), (2,AM2,§), (3,AML,X), (4,AM4,#), (5,ALL,X)",6,"Team: 1 
Game: S2 
Decision: # 
Message: Lass uns hier nochmal # nehmen, weil jeder ein Taler mehr bekommt und ich denke nicht, dass Team 2 so dumm ist, sich 1 Taler durch die Lappen gehen zu lassen :D Wir haben in Runde 4 auch schon Route genommen. aber noch nie","Team: 1 
Game: S2 
Decision: § 
Message: dieselbe idee wie immer. ich hoffe, dass wir dieselbe ideen hatten :) 
Lower bound: 1","Team: 1 
Game: S2 
Decision: § 
Message: dieselbe idee wie immer. ich hoffe, dass wir dieselbe ideen hatten :) 
Lower bound: 0 
Upper bound: 1"
1,6,8,"1.6.8","S1","Pie","§",1,"Here the rule of thumb would be applied again --> BOTTOM RIGHT, so §","Hier würde wieder die Faustformel Anwendung finden –¿ UNTEN RECHTS also §",0,0,"no","no","none","(1,ASL,Y), (2,AM2,§), (3,AML,X), (4,AM4,#), (5,ALL,X), (6,S2,#)",6,"Team: 1 
Game: S1 
Decision: § 
Message: Hier würde wieder die Faustformel Anwendung finden –¿ UNTEN RECHTS also §","Team: 1 
Game: S2 
Decision: § 
Message: dieselbe idee wie immer. ich hoffe, dass wir dieselbe ideen hatten :) 
Lower bound: 0","Team: 1 
Game: S2 
Decision: § 
Message: dieselbe idee wie immer. ich hoffe, dass wir dieselbe ideen hatten :) 
Lower bound: 0 
Upper bound: 0"
1,7,1,"1.7.1","ASL","X-Y","Y",2,"Most likely, the other team will choose the alternative that brings them more coins, unless they think the same about us. I would just choose Y and hope that they do the same. I will also stick with Y. If you want, you can choose X and we'll leave it to chance.","Höchstwahrscheinlich wird das andere Team die Alternative wählen, die ihnen mehr Taler bringt. Außer sie denken das Gleiche über uns. Ich würde einfach mal Y wählen und hoffen, dass die das auch machen Ich werde auch bei Y bleiben. Wenn du willst kannst du X wählen und wir lassen das Glück entscheiden.",2,2,"H","no","none","no history",7,"Team: 2 
Game: ASL 
Decision: Y 
Message: Höchstwahrscheinlich wird das andere Team die Alternative wählen, die ihnen mehr Taler bringt. Außer sie denken das Gleiche über uns. Ich würde einfach mal Y wählen und hoffen, dass die das auch machen Ich werde auch bei Y bleiben. Wenn du willst kannst du X wählen und wir lassen das Glück entscheiden.","Team: 1 
Game: S2 
Decision: § 
Message: dieselbe idee wie immer. ich hoffe, dass wir dieselbe ideen hatten :) 
Lower bound: 2","Team: 1 
Game: S2 
Decision: § 
Message: dieselbe idee wie immer. ich hoffe, dass wir dieselbe ideen hatten :) 
Lower bound: 0 
Upper bound: 2"
1,7,2,"1.7.2","AM2","Pie","$",2,"This is the only segment in which we would get the most. If I were on the other team, I would choose this assuming that Team 2 (us) would choose this segment because it promises a higher profit for the team as the only one.","Das ist das einzige Segment in dem wir am meisten bekommen. Wenn ich im anderen Team wäre, würde ich das wählen in der Annahme, dass Team 2 (wir) das Segement wählen würde, weil es als einziges ein höheren Gewinn für das Team verspricht.",2,2,"H","no","none","(1,ASL,Y)",7,"Team: 2 
Game: AM2 
Decision: $ 
Message: Das ist das einzige Segment in dem wir am meisten bekommen. Wenn ich im anderen Team wäre, würde ich das wählen in der Annahme, dass Team 2 (wir) das Segement wählen würde, weil es als einziges ein höheren Gewinn für das Team verspricht.","Team: 1 
Game: S2 
Decision: § 
Message: dieselbe idee wie immer. ich hoffe, dass wir dieselbe ideen hatten :) 
Lower bound: 2","Team: 1 
Game: S2 
Decision: § 
Message: dieselbe idee wie immer. ich hoffe, dass wir dieselbe ideen hatten :) 
Lower bound: 0 
Upper bound: 2"
1,7,3,"1.7.3","AML","X-Y","Y",2,"Actually the same situation as with the segments. Nevertheless, I will probably choose alternative Y here, probably because there are only 2 alternatives here... but I am very unsure about this.","Eigentlich der gleiche Fall wie mit den Segementen. Hier wähle ich trotzdem Alternative Y wohl aus dem Grund weil es hier nur 2 Alternativen gibt .... hier bin ich mir aber sehr unsicher",2,2,"H","no","none","(1,ASL,Y), (2,AM2,$)",7,"Team: 2 
Game: AML 
Decision: Y 
Message: Eigentlich der gleiche Fall wie mit den Segementen. Hier wähle ich trotzdem Alternative Y wohl aus dem Grund weil es hier nur 2 Alternativen gibt .... hier bin ich mir aber sehr unsicher","Team: 1 
Game: S2 
Decision: § 
Message: dieselbe idee wie immer. ich hoffe, dass wir dieselbe ideen hatten :) 
Lower bound: 2","Team: 1 
Game: S2 
Decision: § 
Message: dieselbe idee wie immer. ich hoffe, dass wir dieselbe ideen hatten :) 
Lower bound: 0 
Upper bound: 2"
1,7,4,"1.7.4","AM4","Pie","#",2,"I would definitely not choose the lower segment because we would get the least there, and I just hope that the other team sees that too and thinks that we would never choose that. I also don't think they are willing to get less than us, so I'll just choose the right one. But it could also be that the left one is chosen. IDK","Ich würde auf keinen Fall das untere Segment wählen, weil wir dort am wenigsten bekommen und ich einfach mal hoffe, dass das andere Team das auch sieht und sich denkt, dass wir das niemals wählen würden. Ich glaube auch nicht, dass sie bereit sind weniger zu bekommen als wir und wähle einfach mal das rechte. Könnte aber auch sein, dass links gewählte wird. kA",2,2,"H","no","pareto dominance arguments","(1,ASL,Y), (2,AM2,$), (3,AML,Y)",7,"Team: 2 
Game: AM4 
Decision: # 
Message: Ich würde auf keinen Fall das untere Segment wählen, weil wir dort am wenigsten bekommen und ich einfach mal hoffe, dass das andere Team das auch sieht und sich denkt, dass wir das niemals wählen würden. Ich glaube auch nicht, dass sie bereit sind weniger zu bekommen als wir und wähle einfach mal das rechte. Könnte aber auch sein, dass links gewählte wird. kA","Team: 1 
Game: S2 
Decision: § 
Message: dieselbe idee wie immer. ich hoffe, dass wir dieselbe ideen hatten :) 
Lower bound: 2","Team: 1 
Game: S2 
Decision: § 
Message: dieselbe idee wie immer. ich hoffe, dass wir dieselbe ideen hatten :) 
Lower bound: 0 
Upper bound: 2"
1,7,5,"1.7.5","ALL","X-Y","X",2,"I choose the option where we win the most and hope that the other team will choose the same... most likely they also want 10 coins, but think the same about us and will therefore choose X. Otherwise, we can let chance decide again. I will definitely stick with X.","Ich wähle die Alternative bei der wir am meisten gewinnen und hoffe, dass das andere team die auch wählen wird ... höchstwahrscheinlich wolen die auch 10 Taler, denken aber das gleiche über uns und wählen daraufhin X. ansosnten können wir wieder den zufall entscheiden lassen ich bleibe auf jeden Fall bei X",2,2,"H","no","none","(1,ASL,Y), (2,AM2,$), (3,AML,Y), (4,AM4,#)",7,"Team: 2 
Game: ALL 
Decision: X 
Message: Ich wähle die Alternative bei der wir am meisten gewinnen und hoffe, dass das andere team die auch wählen wird ... höchstwahrscheinlich wolen die auch 10 Taler, denken aber das gleiche über uns und wählen daraufhin X. ansosnten können wir wieder den zufall entscheiden lassen ich bleibe auf jeden Fall bei X","Team: 1 
Game: S2 
Decision: § 
Message: dieselbe idee wie immer. ich hoffe, dass wir dieselbe ideen hatten :) 
Lower bound: 2","Team: 1 
Game: S2 
Decision: § 
Message: dieselbe idee wie immer. ich hoffe, dass wir dieselbe ideen hatten :) 
Lower bound: 0 
Upper bound: 2"
1,7,6,"1.7.6","S2","Pie","$",2,"One of the segments where we get the most, each team gets the same ... I'll just choose the left one","eins der Segemente bei denen wir am meisten bekommen jedes team bekommt das gleiche ... ich wähle einfach mal das linke",0,0,"H","no","none","(1,ASL,Y), (2,AM2,$), (3,AML,Y), (4,AM4,#), (5,ALL,X)",7,"Team: 2 
Game: S2 
Decision: $ 
Message: eins der Segemente bei denen wir am meisten bekommen jedes team bekommt das gleiche ... ich wähle einfach mal das linke","Team: 1 
Game: S2 
Decision: § 
Message: dieselbe idee wie immer. ich hoffe, dass wir dieselbe ideen hatten :) 
Lower bound: 0","Team: 1 
Game: S2 
Decision: § 
Message: dieselbe idee wie immer. ich hoffe, dass wir dieselbe ideen hatten :) 
Lower bound: 0 
Upper bound: 0"
1,7,7,"1.7.7","SL","X-Y","X",2,"Each team will receive the same... X because it is read first and therefore might be chosen if both are the same...","jedes team bekommt wieder das gleiche... weil das als erstes gelesen wird und deshalb vllt gewählt wird wenn beides das selbe ist...",1,1,"no","X","labels as coordination device","(1,ASL,Y), (2,AM2,$), (3,AML,Y), (4,AM4,#), (5,ALL,X), (6,S2,$)",7,"Team: 2 
Game: SL 
Decision: X 
Message: jedes team bekommt wieder das gleiche... weil das als erstes gelesen wird und deshalb vllt gewählt wird wenn beides das selbe ist...","Team: 1 
Game: S2 
Decision: § 
Message: dieselbe idee wie immer. ich hoffe, dass wir dieselbe ideen hatten :) 
Lower bound: 1","Team: 1 
Game: S2 
Decision: § 
Message: dieselbe idee wie immer. ich hoffe, dass wir dieselbe ideen hatten :) 
Lower bound: 0 
Upper bound: 1"
1,7,8,"1.7.8","S1","Pie","§",2,"hmmmm the lower one because it is more appealing due to the white background, maybe it catches the eye more than the other alternatives","hmmmm das untere weil sympathischer fällt wegen dem weißen Hintergrund vllt mehr ins Auge als die anderen Alternativen",0,1,"no","§","labels as coordination device","(1,ASL,Y), (2,AM2,$), (3,AML,Y), (4,AM4,#), (5,ALL,X), (6,S2,$), (7,SL,X)",7,"Team: 2 
Game: S1 
Decision: § 
Message: hmmmm das untere weil sympathischer fällt wegen dem weißen Hintergrund vllt mehr ins Auge als die anderen Alternativen","Team: 1 
Game: S2 
Decision: § 
Message: dieselbe idee wie immer. ich hoffe, dass wir dieselbe ideen hatten :) 
Lower bound: 0","Team: 1 
Game: S2 
Decision: § 
Message: dieselbe idee wie immer. ich hoffe, dass wir dieselbe ideen hatten :) 
Lower bound: 0 
Upper bound: 1"
1,8,1,"1.8.1","ASL","X-Y","X",2,"Difficult. Due to the small difference, it's a 50:50 chance. It doesn't make a big difference for both teams. The main thing is the agreement... I could imagine that it's better to give yourself 5,10 coins, because that's what the others expect.","Schwierig. Durch den kleinen Unterschied 50:50 Chance. Macht für beide Teams keinen großen Unterschied. Hauptsache ist die Übereinstimmung... Könnte mir vorstellen, dass es besser ist sich selbst 5,10 Taler zu geben, weil das die anderen erwarten",2,2,"H","no","none","no history",8,"Team: 2 
Game: ASL 
Decision: X 
Message: Schwierig. Durch den kleinen Unterschied 50:50 Chance. Macht für beide Teams keinen großen Unterschied. Hauptsache ist die Übereinstimmung... Könnte mir vorstellen, dass es besser ist sich selbst 5,10 Taler zu geben, weil das die anderen erwarten","Team: 1 
Game: S2 
Decision: § 
Message: dieselbe idee wie immer. ich hoffe, dass wir dieselbe ideen hatten :) 
Lower bound: 2","Team: 1 
Game: S2 
Decision: § 
Message: dieselbe idee wie immer. ich hoffe, dass wir dieselbe ideen hatten :) 
Lower bound: 0 
Upper bound: 2"
1,8,2,"1.8.2","AM2","Pie","§",2,"By the way: Hello! :) Looking forward to working together. My approach is fairness and optimizing well-being for both teams, because I believe that's the only way it works. Here, I would take the field that is most noticeable, so the white one at the bottom. We can also be satisfied with 5 coins, better than nothing if there is no agreement.","Übrigens: Hallo! :) Auf gute Zusammenarbeit. Mein Ansatz ist Fairness & Wohlfahrtoptimierung für beide Teams, denn ich glaube nur so funktionierts. Hier würde ich das Feld nehmen, welches am auffälligsten ist, also das weiße unten. Können auch noch mit 5 Talern zufrieden sein, besser als NULL bei nicht Übereinstimmung.",0,1,"no","§","labels as coordination device","(1,ASL,X)",8,"Team: 2 
Game: AM2 
Decision: § 
Message: Übrigens: Hallo! :) Auf gute Zusammenarbeit. Mein Ansatz ist Fairness & Wohlfahrtoptimierung für beide Teams, denn ich glaube nur so funktionierts. Hier würde ich das Feld nehmen, welches am auffälligsten ist, also das weiße unten. Können auch noch mit 5 Talern zufrieden sein, besser als NULL bei nicht Übereinstimmung.","Team: 1 
Game: S2 
Decision: § 
Message: dieselbe idee wie immer. ich hoffe, dass wir dieselbe ideen hatten :) 
Lower bound: 0","Team: 1 
Game: S2 
Decision: § 
Message: dieselbe idee wie immer. ich hoffe, dass wir dieselbe ideen hatten :) 
Lower bound: 0 
Upper bound: 1"
1,8,3,"1.8.3","AML","X-Y","X",2,"Difficult... constantly the almost same, but still unbalanced options... Main question: Do others think it's better to give ourselves more because we are willing to do so... or should we give ourselves more because others are willing to sacrifice and think that this will create a consensus?! If we both have different answers and the other team also has different answers, the whole thing is completely random anyway ;)","Schwierig... ständig die fast gleichen, aber doch unausgeglichenen Optionen...Hauptfrage: Denken die anderen, dass es besser ist sich selbst mehr zu geben, weil wir dazu bereit sind...oder sollen wir uns selbst mehr geben, weil die anderen bereit zum Opfer sind und denken damit eine Übereinstimmung zu erzeugen?! Falls wir beide unterschiedliche Antworten haben und das andere Team auch unterschiedliche Antworten haben ist das Ganze eh komplett zufällig ;)",2,3,"H","no","none","(1,ASL,X), (2,AM2,§)",8,"Team: 2 
Game: AML 
Decision: X 
Message: Schwierig... ständig die fast gleichen, aber doch unausgeglichenen Optionen...Hauptfrage: Denken die anderen, dass es besser ist sich selbst mehr zu geben, weil wir dazu bereit sind...oder sollen wir uns selbst mehr geben, weil die anderen bereit zum Opfer sind und denken damit eine Übereinstimmung zu erzeugen?! Falls wir beide unterschiedliche Antworten haben und das andere Team auch unterschiedliche Antworten haben ist das Ganze eh komplett zufällig ;)","Team: 1 
Game: S2 
Decision: § 
Message: dieselbe idee wie immer. ich hoffe, dass wir dieselbe ideen hatten :) 
Lower bound: 2","Team: 1 
Game: S2 
Decision: § 
Message: dieselbe idee wie immer. ich hoffe, dass wir dieselbe ideen hatten :) 
Lower bound: 0 
Upper bound: 3"
1,8,4,"1.8.4","AM4","Pie","§",2,"Again the most noticeable, even though the other gray fields are more fairly distributed...","Wieder das Auffälligste, auch wenn die anderen grauen Felder fairer von der Aufteilung sind...",0,1,"no","§","labels as coordination device","(1,ASL,X), (2,AM2,§), (3,AML,X)",8,"Team: 2 
Game: AM4 
Decision: § 
Message: Wieder das Auffälligste, auch wenn die anderen grauen Felder fairer von der Aufteilung sind...","Team: 1 
Game: S2 
Decision: § 
Message: dieselbe idee wie immer. ich hoffe, dass wir dieselbe ideen hatten :) 
Lower bound: 0","Team: 1 
Game: S2 
Decision: § 
Message: dieselbe idee wie immer. ich hoffe, dass wir dieselbe ideen hatten :) 
Lower bound: 0 
Upper bound: 1"
1,8,5,"1.8.5","ALL","X-Y","Y",2,"Okay, the difference is getting bigger and thus the willingness to sacrifice one's coins for others, and possibly for the agreement, is decreasing. Maybe in this case it would be useful to choose different answers and leave it to chance ;) I'll give the others their 10 coins...","Okay, der Unterschied wird größer und somit die Bereitschaft seine Taler für die anderen und damit evtl. für die Übereinstimmung zu opfern geringer. Vielleicht wäre es in diesem Fall nützlich unterschiedlich Antworten zu wählen und es dem Zufall zu überlassen ;) . Ich gebe den anderen mal ihre 10 Taler...",1,2,"H","no","none","(1,ASL,X), (2,AM2,§), (3,AML,X), (4,AM4,§)",8,"Team: 2 
Game: ALL 
Decision: Y 
Message: Okay, der Unterschied wird größer und somit die Bereitschaft seine Taler für die anderen und damit evtl. für die Übereinstimmung zu opfern geringer. Vielleicht wäre es in diesem Fall nützlich unterschiedlich Antworten zu wählen und es dem Zufall zu überlassen ;) . Ich gebe den anderen mal ihre 10 Taler...","Team: 1 
Game: S2 
Decision: § 
Message: dieselbe idee wie immer. ich hoffe, dass wir dieselbe ideen hatten :) 
Lower bound: 1","Team: 1 
Game: S2 
Decision: § 
Message: dieselbe idee wie immer. ich hoffe, dass wir dieselbe ideen hatten :) 
Lower bound: 0 
Upper bound: 2"
1,8,6,"1.8.6","S2","Pie","§",2,"I consistently stick to the most noticeable. I know the other two are fair in their own right and overall clearly better, but the choice would then be too random and thus the risk for (0, 0) would be too great. Therefore (5, 5) and white.","Ich bleibe konsequent beim Auffälligsten. Ich weiß, die anderen beiden sind jeweils fair und insgesamt auch eindeutig besser, aber die Wahl ist dann zu zufällig und damit das Risiko für ( 0 , 0 ) zu groß. Daher ( 5, 5 ) und weiß",0,1,"no","§","labels as coordination device","(1,ASL,X), (2,AM2,§), (3,AML,X), (4,AM4,§), (5,ALL,Y)",8,"Team: 2 
Game: S2 
Decision: § 
Message: Ich bleibe konsequent beim Auffälligsten. Ich weiß, die anderen beiden sind jeweils fair und insgesamt auch eindeutig besser, aber die Wahl ist dann zu zufällig und damit das Risiko für ( 0 , 0 ) zu groß. Daher ( 5, 5 ) und weiß","Team: 1 
Game: S2 
Decision: § 
Message: dieselbe idee wie immer. ich hoffe, dass wir dieselbe ideen hatten :) 
Lower bound: 0","Team: 1 
Game: S2 
Decision: § 
